timestamp,accel_X,accel_Y,accel_Z
1657083609170,-46,-1016,-163
1657083609210,-49,-1007,-173
1657083609250,-43,-1010,-168
1657083609290,-49,-1005,-160
1657083609330,-46,-1012,-173
1657083609370,-43,-1006,-168
1657083609410,-51,-1013,-170
1657083609450,-44,-1008,-172
1657083609490,-50,-1011,-170
1657083609530,-46,-1012,-173
1657083609570,-48,-1008,-173
1657083609610,-49,-1012,-168
1657083609650,-51,-1005,-170
1657083609690,-49,-1012,-157
1657083609730,-55,-1009,-168
1657083609770,-47,-1005,-163
1657083609810,-44,-1005,-165
1657083609850,-51,-1007,-176
1657083609890,-43,-1008,-160
1657083609930,-50,-1007,-173
1657083609970,-46,-1009,-161
1657083610010,-43,-1010,-169
1657083610050,-53,-1010,-167
1657083610090,-56,-1007,-164
1657083610130,-48,-1005,-169
1657083610170,-46,-1010,-170
1657083610210,-47,-1009,-159
1657083610250,-53,-1013,-167
1657083610290,-45,-1008,-167
1657083610330,-46,-1015,-171
1657083610370,-51,-1011,-170
1657083610410,-45,-1005,-168
1657083610450,-49,-1014,-173
1657083610490,-40,-1014,-167
1657083610530,-47,-1008,-168
1657083610570,-51,-1009,-173
1657083610610,-39,-1012,-170
1657083610650,-40,-1010,-170
1657083610690,-50,-1016,-177
1657083610730,-45,-1010,-169
1657083610770,-45,-1012,-173
1657083610810,-48,-1008,-168
1657083610850,-54,-1007,-164
1657083610890,-43,-1010,-161
1657083610930,-46,-1011,-169
1657083610970,-47,-1009,-175
1657083611010,-40,-1015,-175
1657083611050,-48,-1010,-166
1657083611090,-47,-1006,-172
1657083611130,-44,-1013,-171
1657083611170,-39,-1005,-167
1657083611210,-42,-1012,-169
1657083611250,-48,-1011,-165
1657083611290,-43,-1010,-172
1657083611330,-44,-1007,-173
1657083611370,-41,-1009,-170
1657083611410,-48,-1007,-173
1657083611450,-45,-1009,-173
1657083611490,-45,-1012,-177
1657083611530,-36,-1005,-170
1657083611570,-51,-1007,-164
1657083611610,-50,-1008,-171
1657083611650,-41,-1010,-165
1657083611690,-46,-1011,-167
1657083611730,-53,-1014,-169
1657083611770,-61,-999,-149
1657083611810,-41,-1008,-166
1657083611850,-43,-1007,-168
1657083611890,-41,-1006,-169
1657083611930,-41,-1006,-168
1657083611970,-37,-1009,-179
1657083612010,-42,-1005,-172
1657083612050,-44,-1014,-178
1657083612090,-46,-1011,-170
1657083612130,-46,-1013,-178
1657083612170,-39,-1017,-174
1657083612210,-46,-1014,-171
1657083612250,-48,-1006,-170
1657083612290,-45,-1005,-172
1657083612330,-41,-1009,-167
1657083612370,-39,-1007,-164
1657083612410,-40,-1012,-169
1657083612450,-40,-1016,-170
1657083612490,-44,-1008,-169
1657083612530,-45,-1012,-167
1657083612570,-40,-1010,-168
1657083612610,-39,-1014,-183
1657083612650,-42,-1006,-175
1657083612690,-46,-1014,-168
1657083612730,-34,-1008,-174
1657083612770,-40,-1008,-177
1657083612810,-38,-1008,-181
1657083612850,-35,-1006,-176
1657083612890,-34,-1009,-183
1657083612930,-34,-1008,-183
1657083612970,-38,-1009,-182
1657083613010,-36,-1008,-176
1657083613050,-40,-1005,-183
1657083613090,-40,-1013,-181
1657083613130,-43,-1002,-179
1657083613170,-37,-1010,-179
1657083613210,-31,-1009,-185
1657083613250,-33,-1007,-179
1657083613290,-47,-1006,-181
1657083613330,-42,-1008,-184
1657083613370,-42,-1000,-181
1657083613410,-36,-1007,-189
1657083613450,-42,-1007,-176
1657083613490,-37,-1009,-175
1657083613530,-32,-1008,-184
1657083613570,-34,-1010,-176
1657083613610,-37,-1011,-178
1657083613650,-31,-1008,-186
1657083613690,-35,-1003,-175
1657083613730,-33,-1007,-175
1657083613770,-33,-1007,-179
1657083613810,-33,-1006,-179
1657083613850,-32,-1012,-180
1657083613890,-33,-1001,-184
1657083613930,-38,-1010,-181
1657083613970,-32,-1007,-183
1657083614010,-38,-1008,-176
1657083614050,-34,-1006,-181
1657083614090,-41,-1007,-187
1657083614130,-35,-1005,-178
1657083614170,-33,-1018,-194
1657083614210,-38,-1003,-188
1657083614250,-39,-1014,-188
1657083614290,-35,-1010,-181
1657083614330,-33,-1004,-178
1657083614370,-37,-1005,-195
1657083614410,-29,-1002,-181
1657083614450,-38,-1010,-179
1657083614490,-38,-1008,-184
1657083614530,-41,-1007,-189
1657083614570,-23,-1015,-198
1657083614610,-47,-981,-164
1657083614650,-25,-1008,-201
1657083614690,-34,-1011,-190
1657083614730,-20,-989,-176
1657083614770,-59,-1024,-183
1657083614810,-38,-1010,-178
1657083614850,-31,-1004,-169
1657083614890,-40,-1018,-175
1657083614930,-30,-1006,-175
1657083614970,-46,-1019,-170
1657083615010,-33,-1008,-166
1657083615050,-40,-1013,-185
1657083615090,-23,-1007,-191
1657083615130,-18,-994,-187
1657083615170,-12,-993,-203
1657083615210,-33,-1009,-197
1657083615250,-15,-1001,-169
1657083615290,-23,-1001,-194
1657083615330,-26,-1002,-197
1657083615370,-20,-1005,-190
1657083615410,-21,-1009,-184
1657083615450,-40,-1025,-194
1657083615490,-25,-1021,-172
1657083615530,-34,-1004,-142
1657083615570,-29,-1014,-174
1657083615610,-34,-1011,-160
1657083615650,-25,-1000,-155
1657083615690,-26,-1017,-185
1657083615730,-16,-995,-170
1657083615770,-14,-1000,-164
1657083615810,-15,-1013,-188
1657083615850,-19,-1005,-164
1657083615890,-50,-1000,-162
1657083615930,-13,-1005,-176
1657083615970,-6,-994,-178
1657083616010,-17,-1005,-188
1657083616050,-20,-1007,-192
1657083616090,-18,-1006,-190
1657083616130,-17,-1011,-205
1657083616170,-1,-1010,-212
1657083616210,-1,-995,-200
1657083616250,6,-995,-208
1657083616290,-8,-1013,-229
1657083616330,-9,-994,-193
1657083616370,-11,-1015,-211
1657083616410,26,-995,-243
1657083616450,-12,-1010,-231
1657083616490,-6,-982,-190
1657083616530,-33,-1023,-234
1657083616570,26,-982,-218
1657083616610,8,-1011,-247
1657083616650,20,-980,-231
1657083616690,16,-998,-237
1657083616730,25,-995,-229
1657083616770,22,-960,-207
1657083616810,18,-991,-231
1657083616850,33,-980,-208
1657083616890,12,-1003,-232
1657083616930,29,-1002,-232
1657083616970,35,-978,-223
1657083617010,18,-1004,-250
1657083617050,39,-989,-220
1657083617090,15,-1005,-241
1657083617130,27,-991,-221
1657083617170,2,-1011,-208
1657083617210,5,-1014,-214
1657083617250,7,-1007,-191
1657083617290,21,-991,-194
1657083617330,-5,-1011,-178
1657083617370,8,-990,-188
1657083617410,9,-997,-189
1657083617450,-8,-1005,-202
1657083617490,-10,-1005,-187
1657083617530,-38,-1028,-192
1657083617570,-16,-1008,-195
1657083617610,-27,-1000,-226
1657083617650,-16,-1000,-220
1657083617690,-25,-999,-225
1657083617730,1,-994,-229
1657083617770,-10,-1001,-266
1657083617810,-4,-996,-268
1657083617850,42,-979,-291
1657083617890,68,-998,-312
1657083617930,63,-974,-301
1657083617970,48,-979,-309
1657083618010,62,-976,-301
1657083618050,52,-981,-301
1657083618090,60,-981,-313
1657083618130,72,-978,-332
1657083618170,86,-962,-332
1657083618210,91,-959,-338
1657083618250,104,-963,-348
1657083618290,130,-956,-369
1657083618330,109,-926,-376
1657083618370,120,-949,-353
1657083618410,108,-962,-381
1657083618450,121,-933,-373
1657083618490,132,-992,-510
1657083618530,133,-849,-315
1657083618570,112,-920,-376
1657083618610,108,-965,-421
1657083618650,149,-900,-363
1657083618690,119,-956,-433
1657083618730,124,-930,-392
1657083618770,112,-935,-369
1657083618810,141,-965,-402
1657083618850,116,-944,-373
1657083618890,141,-948,-344
1657083618930,135,-929,-399
1657083618970,111,-957,-377
1657083619010,118,-951,-371
1657083619050,96,-965,-336
1657083619090,81,-973,-369
1657083619130,136,-943,-368
1657083619170,132,-938,-390
1657083619210,142,-924,-384
1657083619250,128,-942,-351
1657083619290,98,-972,-395
1657083619330,121,-943,-365
1657083619370,134,-942,-384
1657083619410,170,-925,-391
1657083619450,118,-942,-420
1657083619490,133,-922,-366
1657083619530,125,-946,-367
1657083619570,124,-941,-369
1657083619610,131,-946,-376
1657083619650,140,-942,-413
1657083619690,97,-934,-361
1657083619730,102,-973,-370
1657083619770,113,-928,-354
1657083619810,118,-946,-402
1657083619850,98,-947,-357
1657083619890,101,-964,-369
1657083619930,91,-967,-387
1657083619970,92,-954,-391
1657083620010,134,-934,-392
1657083620050,149,-911,-392
1657083620090,111,-958,-397
1657083620130,101,-952,-365
1657083620170,101,-955,-386
1657083620210,102,-950,-379
1657083620250,114,-947,-372
1657083620290,80,-953,-363
1657083620330,122,-946,-370
1657083620370,119,-939,-374
1657083620410,97,-953,-402
1657083620450,112,-952,-361
1657083620490,135,-920,-388
1657083620530,113,-949,-358
1657083620570,98,-951,-399
1657083620610,124,-937,-361
1657083620650,110,-935,-407
1657083620690,110,-937,-348
1657083620730,126,-966,-397
1657083620770,162,-940,-381
1657083620810,195,-949,-446
1657083620850,190,-1125,-644
1657083620890,113,-835,-399
1657083620930,155,-854,-373
1657083620970,107,-986,-463
1657083621010,154,-930,-371
1657083621050,163,-910,-422
1657083621090,155,-927,-442
1657083621130,152,-922,-384
1657083621170,140,-929,-400
1657083621210,137,-930,-449
1657083621250,173,-895,-405
1657083621290,141,-926,-418
1657083621330,146,-917,-419
1657083621370,140,-930,-407
1657083621410,158,-921,-419
1657083621450,155,-916,-446
1657083621490,123,-921,-418
1657083621530,144,-907,-389
1657083621570,159,-909,-400
1657083621610,135,-931,-411
1657083621650,129,-929,-396
1657083621690,114,-949,-399
1657083621730,145,-916,-419
1657083621770,147,-929,-385
1657083621810,118,-940,-402
1657083621850,129,-938,-443
1657083621890,138,-915,-365
1657083621930,133,-929,-376
1657083621970,140,-922,-379
1657083622010,132,-943,-425
1657083622050,140,-929,-385
1657083622090,134,-937,-409
1657083622130,147,-918,-416
1657083622170,147,-906,-412
1657083622210,145,-898,-421
1657083622250,159,-911,-433
1657083622290,134,-912,-438
1657083622330,175,-898,-423
1657083622370,156,-922,-474
1657083622410,171,-886,-483
1657083622450,173,-894,-432
1657083622490,138,-914,-446
1657083622530,155,-920,-419
1657083622570,164,-914,-445
1657083622610,164,-899,-441
1657083622650,154,-920,-432
1657083622690,143,-876,-410
1657083622730,169,-881,-412
1657083622770,160,-904,-426
1657083622810,165,-904,-444
1657083622850,173,-906,-463
1657083622890,153,-904,-417
1657083622930,152,-908,-458
1657083622970,191,-906,-436
1657083623010,169,-888,-487
1657083623050,170,-887,-430
1657083623090,154,-890,-437
1657083623130,158,-920,-452
1657083623170,168,-885,-456
1657083623210,185,-891,-416
1657083623250,121,-894,-626
1657083623290,212,-865,-404
1657083623330,136,-921,-500
1657083623370,169,-892,-465
1657083623410,191,-879,-462
1657083623450,163,-898,-480
1657083623490,187,-903,-464
1657083623530,177,-890,-478
1657083623570,155,-876,-491
1657083623610,167,-881,-488
1657083623650,165,-888,-481
1657083623690,166,-881,-473
1657083623730,187,-896,-487
1657083623770,190,-862,-492
1657083623810,170,-886,-484
1657083623850,166,-872,-491
1657083623890,194,-853,-337
1657083623930,138,-880,-527
1657083623970,212,-799,-462
1657083624010,162,-907,-477
1657083624050,159,-881,-414
1657083624090,150,-904,-520
1657083624130,211,-844,-466
1657083624170,165,-908,-470
1657083624210,159,-927,-491
1657083624250,159,-895,-481
1657083624290,184,-866,-519
1657083624330,206,-855,-503
1657083624370,172,-873,-480
1657083624410,168,-874,-482
1657083624450,155,-909,-475
1657083624490,160,-884,-498
1657083624530,207,-886,-491
1657083624570,147,-935,-585
1657083624610,118,-922,-550
1657083624650,188,-862,-457
1657083624690,191,-877,-490
1657083624730,154,-888,-502
1657083624770,152,-891,-498
1657083624810,161,-874,-480
1657083624850,134,-893,-542
1657083624890,156,-892,-492
1657083624930,166,-862,-504
1657083624970,150,-875,-522
1657083625010,129,-854,-506
1657083625050,147,-874,-540
1657083625090,144,-828,-559
1657083625130,87,-900,-537
1657083625170,123,-889,-457
1657083625210,162,-899,-670
1657083625250,193,-796,-591
1657083625290,128,-876,-535
1657083625330,111,-893,-497
1657083625370,127,-899,-457
1657083625410,103,-930,-549
1657083625450,164,-818,-517
1657083625490,161,-861,-535
1657083625530,93,-877,-465
1657083625570,111,-891,-507
1657083625610,155,-863,-522
1657083625650,109,-890,-520
1657083625690,141,-884,-524
1657083625730,171,-848,-515
1657083625770,109,-889,-501
1657083625810,95,-913,-487
1657083625850,159,-897,-488
1657083625890,103,-896,-601
1657083625930,84,-884,-451
1657083625970,106,-863,-459
1657083626010,178,-826,-580
1657083626050,138,-874,-527
1657083626090,102,-891,-498
1657083626130,155,-872,-450
1657083626170,147,-867,-549
1657083626210,120,-882,-496
1657083626250,95,-878,-454
1657083626290,83,-890,-513
1657083626330,229,-891,-509
1657083626370,-61,-724,-611
1657083626410,-39,-1029,-296
1657083626450,-66,-956,-363
1657083626490,97,-861,-643
1657083626530,135,-924,-572
1657083626570,48,-899,-510
1657083626610,0,-865,-353
1657083626650,71,-993,-493
1657083626690,77,-907,-464
1657083626730,-14,-964,-456
1657083626770,-17,-918,-434
1657083626810,11,-945,-418
1657083626850,-35,-949,-438
1657083626890,41,-915,-472
1657083626930,59,-884,-439
1657083626970,-11,-942,-437
1657083627010,55,-905,-477
1657083627050,44,-898,-427
1657083627090,29,-941,-477
1657083627130,2,-924,-421
1657083627170,-24,-920,-413
1657083627210,-36,-966,-486
1657083627250,-41,-879,-332
1657083627290,-155,-1045,-195
1657083627330,-194,-1007,-361
1657083627370,-135,-405,-136
1657083627410,-293,-1185,-167
1657083627450,-174,-1142,98
1657083627490,-92,-1011,67
1657083627530,-69,-1005,-1
1657083627570,-89,-1146,-95
1657083627610,22,-968,-46
1657083627650,0,-1015,-9
1657083627690,-86,-1029,-56
1657083627730,-38,-1075,-125
1657083627770,11,-934,-147
1657083627810,-89,-1094,-263
1657083627850,-245,-1293,-252
1657083627890,-68,-1039,-376
1657083627930,-82,-820,-413
1657083627970,-86,-790,-403
1657083628010,-44,-645,-257
1657083628050,-132,-1030,-422
1657083628090,-98,-948,-389
1657083628130,-102,-1041,-369
1657083628170,11,-957,-333
1657083628210,-43,-1008,-282
1657083628250,-38,-1005,-256
1657083628290,0,-989,-237
1657083628330,-61,-1021,-230
1657083628370,-84,-1011,-160
1657083628410,-95,-1004,-175
1657083628450,25,-976,-185
1657083628490,-3,-965,-301
1657083628530,-130,-1017,-168
1657083628570,-129,-1021,-133
1657083628610,-35,-969,-196
1657083628650,-34,-973,-221
1657083628690,-82,-1012,-208
1657083628730,-65,-1001,-247
1657083628770,-34,-1020,-282
1657083628810,-26,-969,-235
1657083628850,-75,-1013,-219
1657083628890,0,-960,-234
1657083628930,-42,-1000,-315
1657083628970,-15,-965,-278
1657083629010,-36,-980,-342
1657083629050,1,-960,-350
1657083629090,1,-962,-392
1657083629130,-24,-914,-359
1657083629170,28,-988,-458
1657083629210,-27,-987,-541
1657083629250,63,-893,-423
1657083629290,66,-902,-352
1657083629330,-44,-957,-419
1657083629370,7,-950,-342
1657083629410,-6,-944,-462
1657083629450,18,-935,-381
1657083629490,12,-928,-436
1657083629530,40,-932,-416
1657083629570,36,-918,-432
1657083629610,35,-921,-429
1657083629650,45,-949,-412
1657083629690,-7,-955,-434
1657083629730,97,-887,-466
1657083629770,94,-906,-477
1657083629810,75,-904,-410
1657083629850,-24,-1051,-563
1657083629890,59,-919,-409
1657083629930,123,-910,-391
1657083629970,29,-968,-503
1657083630010,78,-926,-447
1657083630050,99,-911,-484
1657083630090,72,-903,-445
1657083630130,76,-906,-432
1657083630170,99,-908,-470
1657083630210,138,-899,-458
1657083630250,37,-923,-504
1657083630290,57,-951,-356
1657083630330,1,-933,-465
1657083630370,93,-916,-347
1657083630410,-23,-947,-494
1657083630450,-38,-945,-221
1657083630490,27,-999,-494
1657083630530,76,-814,-492
1657083630570,83,-888,-404
1657083630610,27,-940,-447
1657083630650,13,-965,-449
1657083630690,143,-872,-490
1657083630730,130,-842,-514
1657083630770,70,-903,-460
1657083630810,95,-919,-438
1657083630850,133,-871,-500
1657083630890,138,-867,-504
1657083630930,25,-1003,-469
1657083630970,100,-887,-451
1657083631010,104,-872,-579
1657083631050,114,-827,-439
1657083631090,-86,-880,-538
1657083631130,63,-856,-617
1657083631170,189,-811,-414
1657083631210,-162,-955,-652
1657083631250,67,-875,-422
1657083631290,50,-847,-569
1657083631330,28,-816,-626
1657083631370,8,-826,-530
1657083631410,-11,-858,-611
1657083631450,0,-849,-624
1657083631490,-15,-846,-657
1657083631530,-60,-787,-664
1657083631570,-3,-796,-617
1657083631610,-26,-832,-682
1657083631650,62,-873,-693
1657083631690,46,-464,-884
1657083631730,-16,-689,-680
1657083631770,-27,-565,-832
1657083631810,60,-752,-692
1657083631850,-97,-812,-736
1657083631890,-124,-561,-654
1657083631930,-134,-625,-822
1657083631970,708,-892,-1421
1657083632010,-49,-793,-655
1657083632050,-138,-591,-704
1657083632090,-56,-810,-863
1657083632130,-272,-812,-1236
1657083632170,12,-514,-668
1657083632210,24,-479,-853
1657083632250,-405,-732,-845
1657083632290,-773,-932,-631
1657083632330,-1056,-618,-461
1657083632370,-808,103,-200
1657083632410,-645,52,-268
1657083632450,-608,145,-418
1657083632490,-648,0,-603
1657083632530,-641,-449,-254
1657083632570,-621,-1243,-387
1657083632610,-792,-1532,-656
1657083632650,-925,-1423,-842
1657083632690,-741,-1377,-926
1657083632730,-293,-947,-760
1657083632770,-74,-777,-460
1657083632810,14,-815,-175
1657083632850,140,-649,228
1657083632890,194,-434,468
1657083632930,419,-374,703
1657083632970,305,-554,751
1657083633010,423,-1263,982
1657083633050,730,-2046,1221
1657083633090,318,-2046,1295
1657083633130,-135,-1682,1182
1657083633170,-141,-1358,942
1657083633210,-58,-1238,817
1657083633250,-44,-1277,699
1657083633290,-28,-1211,401
1657083633330,30,-1042,207
1657083633370,103,-846,255
1657083633410,99,-814,486
1657083633450,21,-973,695
1657083633490,-143,-1031,750
1657083633530,-415,-958,656
1657083633570,-468,-1095,635
1657083633610,-335,-1291,611
1657083633650,-121,-1643,588
1657083633690,49,-1764,621
1657083633730,112,-1804,618
1657083633770,263,-1711,630
1657083633810,409,-1547,601
1657083633850,365,-1139,368
1657083633890,344,-925,380
1657083633930,351,-817,262
1657083633970,443,-806,309
1657083634010,366,-720,286
1657083634050,345,-777,437
1657083634090,365,-780,523
1657083634130,219,-932,634
1657083634170,246,-1422,591
1657083634210,163,-1508,506
1657083634250,-4,-1185,571
1657083634290,23,-859,547
1657083634330,94,-889,525
1657083634370,162,-854,589
1657083634410,131,-908,674
1657083634450,131,-910,629
1657083634490,111,-958,698
1657083634530,45,-1045,683
1657083634570,42,-1061,612
1657083634610,150,-959,777
1657083634650,40,-853,750
1657083634690,-173,-702,526
1657083634730,-154,-869,604
1657083634770,-168,-1066,719
1657083634810,-227,-1239,809
1657083634850,-115,-1155,932
1657083634890,-55,-1179,1188
1657083634930,-137,-1407,1742
1657083634970,-321,-1834,2046
1657083635010,-162,-2046,2046
1657083635050,810,-979,1445
1657083635090,1086,-487,545
1657083635130,904,-195,139
1657083635170,752,3,-126
1657083635210,777,86,-259
1657083635250,706,-136,100
1657083635290,559,-474,591
1657083635330,667,-954,950
1657083635370,893,-1640,1247
1657083635410,910,-2046,1746
1657083635450,509,-2046,1715
1657083635490,-31,-2046,1312
1657083635530,-366,-2040,704
1657083635570,-397,-1633,428
1657083635610,-346,-1264,208
1657083635650,-201,-1112,141
1657083635690,-2,-1150,202
1657083635730,-8,-1188,247
1657083635770,-210,-1154,366
1657083635810,-419,-1000,371
1657083635850,-372,-1151,281
1657083635890,-238,-1383,402
1657083635930,-158,-1548,483
1657083635970,-83,-1625,508
1657083636010,78,-1712,544
1657083636050,231,-1720,547
1657083636090,304,-1478,501
1657083636130,329,-1248,458
1657083636170,254,-973,293
1657083636210,264,-802,251
1657083636250,354,-723,323
1657083636290,427,-669,310
1657083636330,397,-815,290
1657083636370,191,-864,335
1657083636410,17,-1018,371
1657083636450,32,-1471,278
1657083636490,54,-1560,147
1657083636530,-36,-1291,277
1657083636570,-153,-1144,273
1657083636610,-103,-1167,249
1657083636650,-56,-1247,210
1657083636690,-104,-1242,232
1657083636730,-160,-1127,181
1657083636770,-152,-1131,221
1657083636810,-130,-1257,239
1657083636850,-162,-1420,286
1657083636890,-310,-1242,287
1657083636930,-418,-978,159
1657083636970,-307,-1075,188
1657083637010,-176,-1167,277
1657083637050,-146,-1251,291
1657083637090,-133,-1351,281
1657083637130,-3,-1426,319
1657083637170,61,-1448,406
1657083637210,175,-1295,396
1657083637250,188,-1098,358
1657083637290,193,-949,328
1657083637330,193,-978,329
1657083637370,209,-993,319
1657083637410,168,-1053,306
1657083637450,146,-1040,313
1657083637490,-25,-855,232
1657083637530,-11,-997,170
1657083637570,100,-1208,45
1657083637610,130,-1096,-50
1657083637650,50,-904,14
1657083637690,73,-785,141
1657083637730,152,-824,260
1657083637770,177,-808,-39
1657083637810,61,-1144,514
1657083637850,-78,-1262,335
1657083637890,-53,-1473,335
1657083637930,-98,-1592,346
1657083637970,-197,-1596,278
1657083638010,-347,-1386,235
1657083638050,-419,-1048,136
1657083638090,-349,-968,53
1657083638130,-276,-1160,61
1657083638170,-284,-1283,15
1657083638210,-321,-1368,90
1657083638250,-177,-1475,239
1657083638290,27,-1651,368
1657083638330,160,-1635,440
1657083638370,210,-1410,472
1657083638410,197,-1126,465
1657083638450,216,-950,400
1657083638490,243,-907,374
1657083638530,225,-783,345
1657083638570,277,-978,292
1657083638610,322,-1016,247
1657083638650,95,-848,132
1657083638690,-61,-1345,-137
1657083638730,50,-1459,-221
1657083638770,70,-1190,72
1657083638810,-49,-858,206
1657083638850,-15,-788,183
1657083638890,60,-940,37
1657083638930,78,-1125,229
1657083638970,36,-1208,151
1657083639010,-123,-1283,171
1657083639050,-207,-1361,192
1657083639090,-228,-1394,218
1657083639130,-190,-1360,227
1657083639170,-210,-1345,250
1657083639210,-344,-1169,171
1657083639250,-430,-999,16
1657083639290,-311,-1191,117
1657083639330,-250,-1331,227
1657083639370,-247,-1405,177
1657083639410,-173,-1448,238
1657083639450,-5,-1540,337
1657083639490,131,-1529,369
1657083639530,221,-1341,378
1657083639570,197,-1128,369
1657083639610,169,-962,318
1657083639650,161,-981,313
1657083639690,197,-999,316
1657083639730,171,-1022,300
1657083639770,237,-1036,302
1657083639810,221,-865,239
1657083639850,69,-1002,125
1657083639890,168,-1188,-33
1657083639930,253,-1033,-28
1657083639970,187,-892,42
1657083640010,124,-1001,138
1657083640050,192,-1382,127
1657083640090,142,-1716,457
1657083640130,-149,-1632,405
1657083640170,-548,-1416,314
1657083640210,-619,-1333,126
1657083640250,-340,-1287,36
1657083640290,-130,-1259,5
1657083640330,-73,-1293,96
1657083640370,-192,-1083,170
1657083640410,-308,-938,107
1657083640450,-229,-1268,224
1657083640490,-169,-1528,281
1657083640530,-198,-1635,228
1657083640570,-175,-1608,309
1657083640610,138,-1528,321
1657083640650,142,-1545,483
1657083640690,375,-1349,318
1657083640730,268,-1067,344
1657083640770,193,-1016,203
1657083640810,199,-1103,284
1657083640850,271,-983,346
1657083640890,305,-896,281
1657083640930,302,-754,248
1657083640970,135,-898,170
1657083641010,82,-1207,17
1657083641050,61,-1245,-107
1657083641090,35,-1078,10
1657083641130,16,-1055,205
1657083641170,194,-1263,216
1657083641210,82,-1768,394
1657083641250,-149,-1715,357
1657083641290,-434,-1440,213
1657083641330,-437,-1291,29
1657083641370,-221,-1316,-39
1657083641410,-145,-1268,-18
1657083641450,-286,-1183,138
1657083641490,-426,-984,171
1657083641530,-396,-970,120
1657083641570,-269,-1432,268
1657083641610,-293,-1753,265
1657083641650,-326,-1857,203
1657083641690,-138,-2046,396
1657083641730,201,-2046,599
1657083641770,419,-2046,1158
1657083641810,567,-1530,1129
1657083641850,708,-1055,675
1657083641890,499,-631,408
1657083641930,565,-455,322
1657083641970,639,-458,212
1657083642010,634,-505,239
1657083642050,383,-677,488
1657083642090,197,-1198,811
1657083642130,246,-1391,751
1657083642170,232,-1434,738
1657083642210,2046,-1616,2043
1657083642250,-154,-1677,533
1657083642290,-30,-1717,347
1657083642330,-87,-1570,358
1657083642370,-245,-1210,302
1657083642410,-305,-1008,167
1657083642450,-226,-886,90
1657083642490,-182,-999,100
1657083642530,-215,-1086,109
1657083642570,-213,-1196,322
1657083642610,-223,-1283,387
1657083642650,-342,-1234,292
1657083642690,-256,-1405,431
1657083642730,-83,-1668,561
1657083642770,-14,-1754,498
1657083642810,-13,-1564,534
1657083642850,4,-1524,653
1657083642890,191,-1448,577
1657083642930,300,-1297,491
1657083642970,254,-1032,293
1657083643010,245,-865,177
1657083643050,330,-694,165
1657083643090,371,-724,160
1657083643130,434,-901,299
1657083643170,318,-1012,417
1657083643210,53,-1304,603
1657083643250,-113,-1476,559
1657083643290,-40,-1336,312
1657083643330,-14,-1281,244
1657083643370,-14,-1326,247
1657083643410,-42,-1471,263
1657083643450,-159,-1499,250
1657083643490,-342,-1480,155
1657083643530,-402,-1286,-9
1657083643570,-235,-1149,-39
1657083643610,-91,-1145,125
1657083643650,-150,-1132,179
1657083643690,-342,-1060,51
1657083643730,-378,-999,15
1657083643770,-251,-1305,135
1657083643810,-225,-1613,243
1657083643850,-278,-1745,270
1657083643890,-172,-1875,416
1657083643930,58,-2004,730
1657083643970,371,-1822,972
1657083644010,493,-1316,1018
1657083644050,506,-941,895
1657083644090,537,-599,753
1657083644130,542,-414,608
1657083644170,511,-347,448
1657083644210,615,-507,454
1657083644250,478,-557,413
1657083644290,206,-650,528
1657083644330,257,-1049,660
1657083644370,392,-1334,698
1657083644410,177,-1555,825
1657083644450,-51,-438,783
1657083644490,-250,-1380,594
1657083644530,-193,-1434,466
1657083644570,-137,-1351,532
1657083644610,-154,-1095,451
1657083644650,-229,-1058,315
1657083644690,-150,-1094,252
1657083644730,-121,-1155,262
1657083644770,-203,-1274,441
1657083644810,-334,-1185,457
1657083644850,-417,-936,427
1657083644890,-232,-1032,538
1657083644930,-6,-1341,710
1657083644970,37,-1602,749
1657083645010,9,-1493,692
1657083645050,39,-1371,789
1657083645090,274,-1283,872
1657083645130,425,-1166,904
1657083645170,399,-935,815
1657083645210,306,-821,699
1657083645250,354,-791,678
1657083645290,434,-669,607
1657083645330,535,-734,642
1657083645370,404,-625,465
1657083645410,129,-657,490
1657083645450,228,-859,536
1657083645490,341,-829,474
1657083645530,282,-878,671
1657083645570,175,-903,647
1657083645610,550,-1751,542
1657083645650,304,-1197,1125
1657083645690,25,-1489,868
1657083645730,-202,-1284,630
1657083645770,-243,-1128,521
1657083645810,-165,-1176,513
1657083645850,-114,-1300,577
1657083645890,-221,-1136,503
1657083645930,-327,-893,387
1657083645970,-174,-933,534
1657083646010,-6,-1166,719
1657083646050,-72,-1299,643
1657083646090,-112,-1311,585
1657083646130,-34,-1249,606
1657083646170,142,-1342,736
1657083646210,299,-1251,770
1657083646250,318,-1090,687
1657083646290,348,-1002,629
1657083646330,424,-981,583
1657083646370,460,-850,550
1657083646410,522,-806,591
1657083646450,239,-685,522
1657083646490,3,-795,422
1657083646530,245,-1005,331
1657083646570,355,-968,321
1657083646610,194,-877,424
1657083646650,120,-804,465
1657083646690,137,-976,514
1657083646730,99,-1300,554
1657083646770,1,-1431,518
1657083646810,-138,-1273,403
1657083646850,-177,-1271,414
1657083646890,-95,-1224,391
1657083646930,-100,-1247,430
1657083646970,-166,-1166,484
1657083647010,-336,-969,377
1657083647050,-391,-961,349
1657083647090,-226,-1227,477
1657083647130,-172,-1354,358
1657083647170,-180,-1328,249
1657083647210,-119,-1268,366
1657083647250,68,-1253,478
1657083647290,127,-1220,437
1657083647330,218,-1181,461
1657083647370,147,-1206,421
1657083647410,160,-1288,419
1657083647450,277,-1245,542
1657083647490,374,-1034,658
1657083647530,334,-890,504
1657083647570,107,-672,342
1657083647610,127,-846,271
1657083647650,367,-887,133
1657083647690,300,-817,188
1657083647730,167,-804,247
1657083647770,139,-857,316
1657083647810,163,-1074,391
1657083647850,90,-1337,422
1657083647890,-53,-1655,373
1657083647930,-233,-1566,229
1657083647970,-304,-1402,192
1657083648010,-278,-1361,209
1657083648050,-263,-1349,286
1657083648090,-259,-1215,380
1657083648130,-335,-973,267
1657083648170,-312,-947,195
1657083648210,-129,-1285,417
1657083648250,-106,-1506,427
1657083648290,-206,-1523,398
1657083648330,-107,-1476,517
1657083648370,79,-1543,667
1657083648410,249,-1471,711
1657083648450,293,-1228,668
1657083648490,310,-1085,535
1657083648530,383,-1014,448
1657083648570,525,-893,445
1657083648610,499,-756,418
1657083648650,415,-743,465
1657083648690,151,-598,443
1657083648730,71,-1008,601
1657083648770,495,-1048,448
1657083648810,438,-1075,700
1657083648850,223,-1073,786
1657083648890,76,-1085,763
1657083648930,120,-1236,722
1657083648970,104,-1224,703
1657083649010,-58,-1263,596
1657083649050,-239,-1296,495
1657083649090,-331,-1330,500
1657083649130,-424,-1388,446
1657083649170,-407,-1301,407
1657083649210,-278,-1088,380
1657083649250,-144,-1101,397
1657083649290,-3,-1237,531
1657083649330,-2,-1325,642
1657083649370,-51,-1352,641
1657083649410,-17,-1306,649
1657083649450,119,-1314,651
1657083649490,264,-1375,574
1657083649530,269,-1198,421
1657083649570,244,-1038,319
1657083649610,296,-937,301
1657083649650,406,-920,323
1657083649690,367,-887,307
1657083649730,233,-929,328
1657083649770,116,-836,347
1657083649810,-28,-1005,356
1657083649850,153,-1324,281
1657083649890,163,-1333,254
1657083649930,-19,-1216,256
1657083649970,-149,-1132,236
1657083650010,-96,-1168,256
1657083650050,-105,-1122,282
1657083650090,-224,-1169,264
1657083650130,-250,-1167,236
1657083650170,-267,-1320,355
1657083650210,-347,-1500,295
1657083650250,-455,-1419,204
1657083650290,-333,-1126,347
1657083650330,-182,-929,318
1657083650370,-34,-1213,528
1657083650410,73,-1130,617
1657083650450,11,-1080,730
1657083650490,14,-976,788
1657083650530,154,-1009,804
1657083650570,241,-959,716
1657083650610,324,-957,625
1657083650650,240,-799,475
1657083650690,248,-712,442
1657083650730,372,-743,464
1657083650770,378,-792,479
1657083650810,336,-944,570
1657083650850,238,-915,629
1657083650890,-54,-881,550
1657083650930,59,-1132,492
1657083650970,240,-1179,511
1657083651010,105,-1013,510
1657083651050,38,-839,485
1657083651090,17,-821,444
1657083651130,14,-874,391
1657083651170,24,-894,404
1657083651210,15,-966,410
1657083651250,55,-932,485
1657083651290,71,-938,614
1657083651330,6,-1149,578
1657083651370,-113,-1274,547
1657083651410,-258,-1136,474
1657083651450,-309,-976,407
1657083651490,-155,-1092,550
1657083651530,-82,-1201,595
1657083651570,-85,-1214,597
1657083651610,-34,-1085,627
1657083651650,164,-1015,684
1657083651690,72,-976,600
1657083651730,257,-871,569
1657083651770,242,-917,487
1657083651810,260,-1001,496
1657083651850,316,-1104,591
1657083651890,287,-995,621
1657083651930,250,-867,691
1657083651970,290,-734,638
1657083652010,143,-653,515
1657083652050,162,-845,448
1657083652090,290,-1015,369
1657083652130,219,-922,314
1657083652170,98,-758,348
1657083652210,129,-721,366
1657083652250,167,-890,399
1657083652290,162,-1037,456
1657083652330,44,-1121,511
1657083652370,-19,-1134,554
1657083652410,-14,-1188,637
1657083652450,-52,-1309,637
1657083652490,-89,-1379,666
1657083652530,-215,-1289,574
1657083652570,-371,-1032,392
1657083652610,-265,-1004,428
1657083652650,-118,-1158,472
1657083652690,-73,-1256,454
1657083652730,-33,-1250,563
1657083652770,67,-1218,696
1657083652810,187,-1208,856
1657083652850,300,-1063,829
1657083652890,281,-864,648
1657083652930,259,-830,494
1657083652970,338,-813,459
1657083653010,408,-793,558
1657083653050,343,-776,548
1657083653090,331,-913,573
1657083653130,260,-993,591
1657083653170,53,-918,512
1657083653210,140,-1083,473
1657083653250,259,-1032,425
1657083653290,176,-891,426
1657083653330,98,-819,372
1657083653370,104,-924,320
1657083653410,106,-1079,365
1657083653450,37,-1186,407
1657083653490,-70,-1163,399
1657083653530,-59,-1092,433
1657083653570,-5,-1182,525
1657083653610,-134,-1315,495
1657083653650,-324,-1344,449
1657083653690,-557,-1102,251
1657083653730,-349,-1096,450
1657083653770,-62,-1364,732
1657083653810,-51,-1429,780
1657083653850,-16,-1192,749
1657083653890,141,-1101,725
1657083653930,10,-1028,1310
1657083653970,228,-1095,489
1657083654010,405,-998,422
1657083654050,247,-901,429
1657083654090,377,-800,420
1657083654130,492,-723,438
1657083654170,389,-862,517
1657083654210,284,-861,544
1657083654250,162,-994,645
1657083654290,371,-1244,592
1657083654330,401,-1157,526
1657083654370,191,-1029,536
1657083654410,151,-1038,525
1657083654450,105,-1211,514
1657083654490,-162,-1440,495
1657083654530,-605,-1474,531
1657083654570,-580,-1136,453
1657083654610,-554,-1034,404
1657083654650,-518,-1034,253
1657083654690,-436,-998,256
1657083654730,-387,-1159,451
1657083654770,-303,-1901,619
1657083654810,-228,-2046,948
1657083654850,-264,-1686,1537
1657083654890,150,-1708,1391
1657083654930,635,-1842,1156
1657083654970,788,-1709,912
1657083655010,752,-1077,612
1657083655050,738,-840,458
1657083655090,724,-492,236
1657083655130,677,-89,222
1657083655170,678,-272,359
1657083655210,538,-792,498
1657083655250,665,-1350,727
1657083655290,912,-1758,1221
1657083655330,41,-2046,1533
1657083655370,-689,-1880,1161
1657083655410,-297,-1401,851
1657083655450,-289,-1401,713
1657083655490,-558,-1276,379
1657083655530,-470,-988,362
1657083655570,-569,-832,493
1657083655610,-613,-997,522
1657083655650,-536,-1043,528
1657083655690,-550,-951,563
1657083655730,-438,-1307,678
1657083655770,-318,-2008,838
1657083655810,-333,-2046,915
1657083655850,-177,-1974,921
1657083655890,193,-2046,904
1657083655930,457,-2046,669
1657083655970,586,-1602,464
1657083656010,543,-1138,355
1657083656050,549,-871,287
1657083656090,631,-670,280
1657083656130,633,-748,309
1657083656170,422,-870,406
1657083656210,418,-1026,524
1657083656250,583,-1246,636
1657083656290,479,-1716,764
1657083656330,153,-2046,691
1657083656370,-2,-2046,586
1657083656410,-217,-2046,406
1657083656450,-487,-2046,203
1657083656490,-695,-1744,121
1657083656530,-700,-1369,139
1657083656570,-627,-1293,116
1657083656610,-579,-1256,92
1657083656650,-526,-1307,39
1657083656690,-423,-1668,252
1657083656730,-236,-2046,716
1657083656770,-14,-2046,1027
1657083656810,217,-2046,1233
1657083656850,442,-2046,1454
1657083656890,829,-2046,1050
1657083656930,1020,-1666,569
1657083656970,829,-1003,384
1657083657010,700,-661,512
1657083657050,695,-220,525
1657083657090,660,-456,500
1657083657130,549,-645,643
1657083657170,685,-942,787
1657083657210,746,-1367,1086
1657083657250,478,-1474,1294
1657083657290,286,-1796,1272
1657083657330,131,-2046,1228
1657083657370,-66,-2046,890
1657083657410,-374,-1820,428
1657083657450,-373,-1420,309
1657083657490,-343,-1401,587
1657083657530,-443,-1266,607
1657083657570,-536,-1110,654
1657083657610,-403,-979,527
1657083657650,-200,-1473,769
1657083657690,-20,-2046,1054
1657083657730,5,-2003,1152
1657083657770,249,-2046,1244
1657083657810,386,-2046,1127
1657083657850,591,-1971,762
1657083657890,573,-1440,397
1657083657930,521,-963,320
1657083657970,690,-783,346
1657083658010,767,-515,392
1657083658050,539,-798,476
1657083658090,268,-1137,497
1657083658130,296,-1487,460
1657083658170,391,-1838,628
1657083658210,126,-1971,670
1657083658250,-153,-2004,551
1657083658290,-204,-2046,302
1657083658330,-206,-2046,-17
1657083658370,-395,-1775,-128
1657083658410,-605,-1565,-193
1657083658450,-378,-1245,-40
1657083658490,-174,-1147,155
1657083658530,-310,-1183,254
1657083658570,-446,-1033,207
1657083658610,-364,-1374,183
1657083658650,-243,-1981,381
1657083658690,-150,-2046,565
1657083658730,-22,-2046,712
1657083658770,237,-2046,870
1657083658810,463,-2046,809
1657083658850,601,-1904,875
1657083658890,634,-1193,984
1657083658930,885,-836,735
1657083658970,777,-523,179
1657083659010,479,-454,227
1657083659050,504,-473,335
1657083659090,506,-686,473
1657083659130,771,-1087,843
1657083659170,800,-1442,1253
1657083659210,386,-1628,1409
1657083659250,51,-1894,1099
1657083659290,158,-2046,675
1657083659330,105,-2046,370
1657083659370,-266,-1825,25
1657083659410,-361,-1468,-60
1657083659450,-86,-1397,228
1657083659490,-142,-1371,345
1657083659530,-357,-1218,334
1657083659570,-332,-1073,228
1657083659610,-83,-1362,427
1657083659650,-39,-1857,640
1657083659690,-125,-1915,669
1657083659730,-74,-1737,727
1657083659770,154,-1739,851
1657083659810,427,-1710,819
1657083659850,557,-1438,593
1657083659890,570,-1104,334
1657083659930,505,-833,279
1657083659970,617,-636,352
1657083660010,660,-639,373
1657083660050,446,-836,440
1657083660090,223,-1062,638
1657083660130,314,-1332,717
1657083660170,366,-1645,683
1657083660210,116,-1677,599
1657083660250,-76,-1538,403
1657083660290,-169,-1655,375
1657083660330,-106,-1606,287
1657083660370,-202,-1488,127
1657083660410,-314,-1382,34
1657083660450,-417,-1503,34
1657083660490,-509,-1484,94
1657083660530,-495,-1309,165
1657083660570,-239,-1239,214
1657083660610,45,-1613,388
1657083660650,30,-1789,555
1657083660690,-73,-1567,667
1657083660730,24,-1332,677
1657083660770,143,-1322,664
1657083660810,365,-1271,531
1657083660850,469,-1192,440
1657083660890,517,-1023,262
1657083660930,448,-1003,125
1657083660970,327,-1125,154
1657083661010,193,-1050,288
1657083661050,46,-1035,418
1657083661090,70,-1180,555
1657083661130,193,-1341,533
1657083661170,48,-1200,227
1657083661210,-131,-919,91
1657083661250,-141,-822,-9
1657083661290,-8,-882,105
1657083661330,101,-1100,209
1657083661370,85,-1211,371
1657083661410,12,-1568,404
1657083661450,-92,-1928,388
1657083661490,-427,-2045,51
1657083661530,-609,-1489,-230
1657083661570,-655,-1244,-90
1657083661610,-334,-1388,184
1657083661650,-186,-1663,387
1657083661690,-141,-1555,658
1657083661730,156,-1517,1187
1657083661770,186,-1234,1180
1657083661810,624,-1427,1144
1657083661850,778,-1201,911
1657083661890,684,-788,559
1657083661930,575,-780,429
1657083661970,657,-812,444
1657083662010,442,-738,436
1657083662050,227,-899,526
1657083662090,289,-1334,742
1657083662130,489,-1336,836
1657083662170,419,-1207,811
1657083662210,44,-1191,626
1657083662250,-49,-1238,365
1657083662290,54,-1405,206
1657083662330,109,-1716,265
1657083662370,-137,-1743,247
1657083662410,-426,-1569,74
1657083662450,-503,-1506,168
1657083662490,-342,-1397,236
1657083662530,-445,-1158,161
1657083662570,-339,-1186,137
1657083662610,0,-1810,642
1657083662650,101,-2005,1008
1657083662690,56,-1826,1141
1657083662730,307,-1925,1236
1657083662770,531,-2046,1128
1657083662810,711,-1963,794
1657083662850,705,-1386,619
1657083662890,657,-966,409
1657083662930,714,-620,266
1657083662970,724,-336,257
1657083663010,471,-572,341
1657083663050,366,-895,548
1657083663090,388,-1236,624
1657083663130,509,-1786,842
1657083663170,160,-2041,852
1657083663210,-265,-1848,486
1657083663250,-304,-1623,297
1657083663290,-148,-1702,274
1657083663330,-191,-1648,260
1657083663370,-303,-1390,143
1657083663410,-234,-1321,128
1657083663450,-270,-1273,198
1657083663490,-440,-1183,158
1657083663530,-571,-1020,100
1657083663570,-406,-1425,181
1657083663610,-276,-1927,353
1657083663650,-199,-1823,531
1657083663690,-92,-1641,667
1657083663730,189,-1676,707
1657083663770,299,-1744,730
1657083663810,456,-1584,674
1657083663850,435,-1366,446
1657083663890,451,-1288,305
1657083663930,529,-1156,224
1657083663970,460,-824,273
1657083664010,308,-890,320
1657083664050,303,-1090,431
1657083664090,332,-1187,550
1657083664130,250,-1165,554
1657083664170,188,-1228,332
1657083664210,14,-1449,349
1657083664250,66,-1547,370
1657083664290,76,-1904,576
1657083664330,-173,-2046,437
1657083664370,-543,-2032,22
1657083664410,-623,-1612,-35
1657083664450,-620,-1425,-19
1657083664490,-456,-1239,18
1657083664530,-316,-1293,25
1657083664570,-226,-1702,184
1657083664610,-212,-1919,414
1657083664650,-174,-1891,610
1657083664690,50,-1929,737
1657083664730,328,-2044,707
1657083664770,456,-1948,605
1657083664810,469,-1554,453
1657083664850,440,-1324,390
1657083664890,484,-1204,355
1657083664930,532,-867,371
1657083664970,439,-790,331
1657083665010,296,-806,292
1657083665050,307,-990,326
1657083665090,358,-1256,278
1657083665130,172,-1472,295
1657083665170,-71,-1561,33
1657083665210,28,-1511,-71
1657083665250,-101,-1798,51
1657083665290,-123,-2006,225
1657083665330,-416,-1738,252
1657083665370,-685,-1658,282
1657083665410,-726,-1563,115
1657083665450,-402,-1377,48
1657083665490,-183,-1123,10
1657083665530,-95,-1538,134
1657083665570,-155,-1715,330
1657083665610,-220,-1515,412
1657083665650,-174,-1444,453
1657083665690,34,-1521,457
1657083665730,250,-1587,449
1657083665770,388,-1624,517
1657083665810,404,-1377,401
1657083665850,375,-1350,372
1657083665890,473,-1029,453
1657083665930,403,-963,571
1657083665970,298,-802,423
1657083666010,415,-863,456
1657083666050,538,-951,398
1657083666090,369,-1008,402
1657083666130,187,-1081,372
1657083666170,241,-1427,234
1657083666210,208,-1860,393
1657083666250,9,-2046,455
1657083666290,-384,-2027,252
1657083666330,-573,-1847,205
1657083666370,-590,-1588,192
1657083666410,-426,-1439,167
1657083666450,-264,-1047,49
1657083666490,-104,-1244,87
1657083666530,-74,-1601,420
1657083666570,-250,-1648,662
1657083666610,-265,-1481,669
1657083666650,-6,-1610,575
1657083666690,295,-1771,677
1657083666730,605,-1726,692
1657083666770,439,-1220,509
1657083666810,332,-1482,734
1657083666850,413,-1014,614
1657083666890,428,-751,722
1657083666930,389,-603,605
1657083666970,439,-652,558
1657083667010,518,-729,554
1657083667050,462,-729,599
1657083667090,346,-668,655
1657083667130,230,-838,683
1657083667170,376,-1076,832
1657083667210,486,-1590,1076
1657083667250,231,-2029,1062
1657083667290,-159,-1893,782
1657083667330,-200,-1676,693
1657083667370,-294,-1511,509
1657083667410,-378,-1328,319
1657083667450,-550,-1101,223
1657083667490,-564,-1531,530
1657083667530,-256,-1804,934
1657083667570,119,-1648,1335
1657083667610,337,-1606,1437
1657083667650,736,-1760,1590
1657083667690,940,-1753,1465
1657083667730,908,-1352,1276
1657083667770,798,-889,991
1657083667810,842,-699,650
1657083667850,838,-310,391
1657083667890,676,-304,336
1657083667930,448,-433,455
1657083667970,447,-733,701
1657083668010,649,-985,998
1657083668050,594,-1216,1208
1657083668090,243,-1315,1158
1657083668130,138,-1513,934
1657083668170,118,-1696,699
1657083668210,22,-1759,606
1657083668250,-176,-1549,413
1657083668290,-172,-1382,473
1657083668330,-186,-1349,562
1657083668370,-250,-1188,520
1657083668410,-341,-917,445
1657083668450,-209,-1096,485
1657083668490,-83,-1666,639
1657083668530,-56,-1758,608
1657083668570,-42,-1531,687
1657083668610,211,-1334,752
1657083668650,387,-1349,899
1657083668690,510,-1232,920
1657083668730,511,-1043,938
1657083668770,598,-861,839
1657083668810,720,-627,690
1657083668850,569,-499,576
1657083668890,534,-516,584
1657083668930,475,-636,700
1657083668970,486,-791,836
1657083669010,419,-809,826
1657083669050,277,-869,854
1657083669090,198,-906,778
1657083669130,258,-1139,764
1657083669170,288,-1509,790
1657083669210,33,-1859,680
1657083669250,-273,-1716,253
1657083669290,-198,-1607,307
1657083669330,-149,-1536,352
1657083669370,-304,-1336,323
1657083669410,-310,-1161,195
1657083669450,-62,-1367,455
1657083669490,109,-1612,754
1657083669530,132,-1625,866
1657083669570,149,-1432,869
1657083669610,295,-1270,770
1657083669650,505,-1249,787
1657083669690,456,-1001,701
1657083669730,377,-874,634
1657083669770,456,-1019,536
1657083669810,647,-1202,528
1657083669850,594,-1081,602
1657083669890,420,-858,616
1657083669930,268,-908,614
1657083669970,365,-952,436
1657083670010,354,-848,417
1657083670050,199,-874,445
1657083670090,274,-1096,386
1657083670130,452,-1507,618
1657083670170,378,-2045,896
1657083670210,-542,-2046,522
1657083670250,-846,-1818,203
1657083670290,-278,-1422,559
1657083670330,89,-945,488
1657083670370,-49,-461,276
1657083670410,-237,-680,194
1657083670450,-311,-1438,203
1657083670490,-488,-1933,207
1657083670530,-624,-1981,430
1657083670570,-152,-1906,686
1657083670610,473,-2041,961
1657083670650,688,-1951,1131
1657083670690,937,-1409,1113
1657083670730,840,-1147,871
1657083670770,577,-791,850
1657083670810,647,-530,926
1657083670850,562,-337,718
1657083670890,338,-246,722
1657083670930,457,-392,819
1657083670970,604,-490,678
1657083671010,602,-740,774
1657083671050,326,-972,962
1657083671090,321,-1170,933
1657083671130,367,-1409,1035
1657083671170,329,-1740,1044
1657083671210,59,-1867,933
1657083671250,-252,-1819,811
1657083671290,-413,-1634,553
1657083671330,-268,-1228,422
1657083671370,-163,-874,283
1657083671410,-29,-929,405
1657083671450,-85,-1392,588
1657083671490,-348,-1683,689
1657083671530,-246,-1691,923
1657083671570,188,-1720,1212
1657083671610,522,-1825,1283
1657083671650,666,-1584,1128
1657083671690,680,-1405,807
1657083671730,679,-1270,575
1657083671770,619,-932,594
1657083671810,517,-575,479
1657083671850,334,-639,375
1657083671890,332,-950,400
1657083671930,527,-960,451
1657083671970,663,-953,619
1657083672010,528,-1145,815
1657083672050,149,-1511,868
1657083672090,204,-1781,709
1657083672130,174,-1987,529
1657083672170,71,-2044,488
1657083672210,-238,-1885,416
1657083672250,-603,-1693,421
1657083672290,-863,-1796,177
1657083672330,-476,-1669,-58
1657083672370,-68,-1277,-200
1657083672410,-43,-1588,111
1657083672450,94,-1999,475
1657083672490,82,-1940,719
1657083672530,5,-1836,839
1657083672570,129,-1973,856
1657083672610,392,-2046,636
1657083672650,531,-1826,597
1657083672690,556,-1529,535
1657083672730,632,-1043,446
1657083672770,504,-531,395
1657083672810,423,-551,379
1657083672850,421,-660,337
1657083672890,417,-912,406
1657083672930,509,-1176,443
1657083672970,393,-1391,489
1657083673010,177,-1413,498
1657083673050,108,-1599,476
1657083673090,171,-1990,488
1657083673130,140,-2046,440
1657083673170,-175,-2046,366
1657083673210,-657,-2046,306
1657083673250,-902,-1940,69
1657083673290,-420,-1683,-226
1657083673330,-10,-1253,-202
1657083673370,-24,-1440,160
1657083673410,-14,-1707,529
1657083673450,-124,-1659,694
1657083673490,-101,-1632,763
1657083673530,175,-1724,984
1657083673570,305,-1808,802
1657083673610,323,-1621,642
1657083673650,338,-1590,421
1657083673690,540,-1309,685
1657083673730,538,-704,665
1657083673770,469,-591,622
1657083673810,383,-562,379
1657083673850,461,-803,418
1657083673890,475,-1075,476
1657083673930,260,-1199,520
1657083673970,92,-1180,431
1657083674010,118,-1425,338
1657083674050,96,-1727,309
1657083674090,30,-1895,231
1657083674130,-102,-1793,375
1657083674170,-278,-1744,430
1657083674210,-552,-1539,412
1657083674250,-738,-1509,303
1657083674290,-540,-1128,123
1657083674330,-227,-1081,173
1657083674370,-112,-1469,286
1657083674410,-161,-1830,365
1657083674450,-169,-1811,413
1657083674490,-1,-1879,494
1657083674530,236,-2046,603
1657083674570,431,-1993,623
1657083674610,432,-1624,610
1657083674650,412,-1584,479
1657083674690,460,-1516,315
1657083674730,539,-1142,244
1657083674770,561,-727,233
1657083674810,546,-492,315
1657083674850,544,-539,461
1657083674890,509,-1008,489
1657083674930,352,-1565,436
1657083674970,208,-1968,404
1657083675010,103,-2046,474
1657083675050,-63,-2046,482
1657083675090,-371,-2046,278
1657083675130,-563,-1719,105
1657083675170,-593,-1630,78
1657083675210,-418,-1416,72
1657083675250,-321,-1362,99
1657083675290,-293,-1115,123
1657083675330,-167,-1341,213
1657083675370,-24,-1655,447
1657083675410,-118,-1676,589
1657083675450,-149,-1641,569
1657083675490,8,-1650,1127
1657083675530,489,-1791,368
1657083675570,29,-1444,689
1657083675610,479,-1213,370
1657083675650,253,-1275,422
1657083675690,368,-1502,345
1657083675730,291,-1158,466
1657083675770,274,-983,573
1657083675810,304,-818,497
1657083675850,474,-868,347
1657083675890,620,-895,150
1657083675930,375,-1024,200
1657083675970,174,-1071,198
1657083676010,132,-1458,305
1657083676050,278,-1873,694
1657083676090,126,-2046,936
1657083676130,-237,-2046,783
1657083676170,-477,-2046,383
1657083676210,-664,-1898,140
1657083676250,-746,-1451,-18
1657083676290,-372,-1139,149
1657083676330,-93,-964,223
1657083676370,131,-1177,446
1657083676410,-14,-1460,879
1657083676450,-69,-1420,1027
1657083676490,89,-1588,1206
1657083676530,743,-1797,1134
1657083676570,550,-1662,976
1657083676610,620,-1417,828
1657083676650,519,-1478,593
1657083676690,491,-1475,489
1657083676730,460,-1225,650
1657083676770,285,-814,726
1657083676810,329,-495,507
1657083676850,565,-546,388
1657083676890,694,-598,216
1657083676930,455,-706,405
1657083676970,341,-918,632
1657083677010,332,-1341,597
1657083677050,404,-2046,798
1657083677090,44,-2046,816
1657083677130,-542,-2046,370
1657083677170,-507,-1912,213
1657083677210,-445,-1628,207
1657083677250,-356,-1452,139
1657083677290,-323,-1061,-34
1657083677330,-213,-1227,70
1657083677370,-144,-1585,311
1657083677410,-148,-1661,510
1657083677450,-109,-1610,613
1657083677490,116,-1661,640
1657083677530,290,-1648,643
1657083677570,457,-1584,656
1657083677610,361,-1440,601
1657083677650,416,-1635,675
1657083677690,432,-1260,744
1657083677730,486,-950,825
1657083677770,478,-723,628
1657083677810,610,-571,483
1657083677850,741,-534,215
1657083677890,596,-767,274
1657083677930,377,-762,509
1657083677970,397,-922,727
1657083678010,515,-1371,930
1657083678050,495,-1921,1036
1657083678090,226,-2046,901
1657083678130,-416,-2046,500
1657083678170,-793,-1988,249
1657083678210,-591,-1744,163
1657083678250,-148,-1240,93
1657083678290,-76,-1129,166
1657083678330,-29,-1531,469
1657083678370,52,-1853,721
1657083678410,63,-1863,902
1657083678450,144,-1758,946
1657083678490,352,-1845,987
1657083678530,613,-1720,939
1657083678570,708,-1423,875
1657083678610,681,-1085,724
1657083678650,765,-755,660
1657083678690,574,-443,468
1657083678730,482,-533,430
1657083678770,443,-524,417
1657083678810,612,-589,509
1657083678850,684,-992,704
1657083678890,417,-1342,861
1657083678930,215,-1652,758
1657083678970,183,-2006,693
1657083679010,0,-2046,481
1657083679050,-376,-2046,22
1657083679090,-600,-1860,-80
1657083679130,-591,-1661,83
1657083679170,-389,-1464,92
1657083679210,-331,-1158,-27
1657083679250,-241,-1244,16
1657083679290,-138,-1723,327
1657083679330,-133,-2046,594
1657083679370,-129,-1984,767
1657083679410,134,-1907,1048
1657083679450,257,-1955,1014
1657083679490,561,-1789,1054
1657083679530,609,-1238,785
1657083679570,611,-940,638
1657083679610,670,-767,524
1657083679650,746,-536,452
1657083679690,713,-454,518
1657083679730,381,-644,528
1657083679770,396,-829,675
1657083679810,600,-1100,781
1657083679850,485,-1699,831
1657083679890,198,-2046,700
1657083679930,0,-2046,463
1657083679970,-144,-2046,152
1657083680010,-466,-1962,-13
1657083680050,-591,-1532,55
1657083680090,-311,-1531,290
1657083680130,-169,-1385,195
1657083680170,-264,-1324,188
1657083680210,-265,-1065,135
1657083680250,-143,-1493,296
1657083680290,-26,-1946,530
1657083680330,-41,-1902,728
1657083680370,-139,-1759,1160
1657083680410,66,-2001,1185
1657083680450,409,-1784,790
1657083680490,461,-1215,841
1657083680530,433,-895,778
1657083680570,384,-682,527
1657083680610,489,-570,513
1657083680650,480,-660,387
1657083680690,374,-797,413
1657083680730,343,-936,479
1657083680770,453,-1125,600
1657083680810,388,-1368,648
1657083680850,48,-1496,491
1657083680890,-144,-1836,191
1657083680930,-93,-1983,384
1657083680970,-308,-2046,218
1657083681010,-663,-1885,73
1657083681050,-675,-1514,118
1657083681090,-372,-1472,361
1657083681130,-320,-1448,234
1657083681170,-404,-1070,49
1657083681210,-381,-1037,103
1657083681250,-280,-1557,354
1657083681290,-279,-1888,425
1657083681330,-222,-1814,538
1657083681370,60,-1682,719
1657083681410,393,-1660,720
1657083681450,284,-1603,852
1657083681490,542,-1130,703
1657083681530,496,-928,637
1657083681570,632,-755,654
1657083681610,614,-432,501
1657083681650,520,-501,550
1657083681690,355,-540,660
1657083681730,467,-704,842
1657083681770,626,-961,893
1657083681810,404,-1155,938
1657083681850,219,-1294,895
1657083681890,165,-1516,772
1657083681930,93,-1842,644
1657083681970,-201,-1751,473
1657083682010,-398,-1438,363
1657083682050,-381,-1367,571
1657083682090,-227,-1448,555
1657083682130,-192,-1352,495
1657083682170,-233,-967,260
1657083682210,-82,-1160,459
1657083682250,10,-1509,688
1657083682290,-3,-1559,697
1657083682330,44,-1449,710
1657083682370,-141,-1666,1034
1657083682410,369,-1352,1060
1657083682450,523,-1133,1058
1657083682490,640,-1047,954
1657083682530,663,-767,764
1657083682570,707,-455,561
1657083682610,624,-388,490
1657083682650,428,-442,519
1657083682690,275,-645,674
1657083682730,433,-886,748
1657083682770,533,-1217,811
1657083682810,243,-1228,803
1657083682850,102,-1285,767
1657083682890,81,-1464,626
1657083682930,31,-1650,456
1657083682970,-175,-1595,342
1657083683010,-304,-1522,303
1657083683050,-298,-1539,441
1657083683090,-305,-1463,393
1657083683130,-307,-1164,264
1657083683170,-212,-1124,260
1657083683210,-45,-1561,547
1657083683250,-38,-1785,803
1657083683290,-102,-1638,939
1657083683330,208,-1381,1208
1657083683370,398,-1533,1680
1657083683410,823,-1295,1226
1657083683450,788,-807,712
1657083683490,670,-591,515
1657083683530,728,-518,311
1657083683570,740,-222,197
1657083683610,676,-384,462
1657083683650,477,-743,792
1657083683690,435,-1260,1209
1657083683730,466,-1591,1300
1657083683770,350,-1404,1022
1657083683810,126,-1225,804
1657083683850,50,-1249,598
1657083683890,57,-1348,480
1657083683930,-35,-1384,432
1657083683970,-253,-1298,355
1657083684010,-293,-1348,413
1657083684050,-285,-1478,496
1657083684090,-320,-1450,521
1657083684130,-274,-1098,343
1657083684170,-133,-1248,327
1657083684210,37,-1641,518
1657083684250,-2,-1753,643
1657083684290,-144,-1535,705
1657083684330,-40,-1398,825
1657083684370,307,-1370,768
1657083684410,566,-1308,710
1657083684450,480,-972,551
1657083684490,375,-769,498
1657083684530,547,-697,434
1657083684570,622,-511,357
1657083684610,454,-673,424
1657083684650,252,-866,452
1657083684690,259,-1190,596
1657083684730,388,-1580,619
1657083684770,223,-1699,553
1657083684810,-176,-1418,199
1657083684850,-250,-1285,86
1657083684890,-286,-1464,-49
1657083684930,-286,-1526,-151
1657083684970,-304,-1472,-120
1657083685010,-385,-1460,-128
1657083685050,-542,-1551,-25
1657083685090,-668,-1567,-38
1657083685130,-523,-1179,-30
1657083685170,-272,-1444,186
1657083685210,-133,-1795,370
1657083685250,-142,-1661,389
1657083685290,-30,-1477,445
1657083685330,138,-1425,554
1657083685370,238,-1393,520
1657083685410,391,-1223,503
1657083685450,470,-1092,362
1657083685490,548,-1081,408
1657083685530,553,-823,471
1657083685570,459,-718,514
1657083685610,250,-766,480
1657083685650,279,-972,547
1657083685690,445,-1230,479
1657083685730,301,-1206,443
1657083685770,7,-1017,324
1657083685810,-13,-1118,316
1657083685850,26,-1186,450
1657083685890,100,-1559,445
1657083685930,27,-1738,297
1657083685970,-268,-1743,173
1657083686010,-430,-1741,282
1657083686050,-536,-1640,395
1657083686090,-535,-1365,401
1657083686130,-408,-1035,384
1657083686170,-219,-1337,702
1657083686210,-94,-1785,828
1657083686250,-47,-1751,742
1657083686290,243,-1618,763
1657083686330,289,-1643,831
1657083686370,271,-1677,854
1657083686410,208,-1731,1021
1657083686450,425,-1258,1039
1657083686490,800,-701,838
1657083686530,807,-216,372
1657083686570,701,-200,262
1657083686610,529,-388,243
1657083686650,440,-691,416
1657083686690,566,-1215,579
1657083686730,713,-1348,900
1657083686770,387,-1549,1149
1657083686810,260,-1917,1140
1657083686850,53,-1926,987
1657083686890,-215,-1900,807
1657083686930,-426,-1571,610
1657083686970,-376,-1391,599
1657083687010,-321,-1353,627
1657083687050,-315,-1421,654
1657083687090,-378,-1139,525
1657083687130,-250,-1008,514
1657083687170,-114,-1417,705
1657083687210,-45,-1654,682
1657083687250,-78,-1532,643
1657083687290,174,-1492,875
1657083687330,289,-1519,868
1657083687370,470,-1349,862
1657083687410,547,-1078,661
1657083687450,540,-966,559
1657083687490,635,-865,520
1657083687530,610,-536,477
1657083687570,443,-548,611
1657083687610,348,-731,749
1657083687650,448,-925,864
1657083687690,505,-998,901
1657083687730,364,-969,873
1657083687770,342,-984,1019
1657083687810,458,-1405,1324
1657083687850,58,-1665,859
1657083687890,-418,-1570,176
1657083687930,-288,-1305,-120
1657083687970,-74,-1279,49
1657083688010,-255,-1387,67
1657083688050,-396,-1467,378
1657083688090,73,-1534,981
1657083688130,263,-1581,1126
1657083688170,204,-1567,1227
1657083688210,180,-1439,1178
1657083688250,166,-1146,967
1657083688290,181,-1200,899
1657083688330,466,-1321,938
1657083688370,742,-1179,896
1657083688410,720,-880,558
1657083688450,555,-781,343
1657083688490,604,-752,370
1657083688530,476,-707,411
1657083688570,399,-740,567
1657083688610,306,-961,737
1657083688650,322,-1343,789
1657083688690,191,-1515,525
1657083688730,-115,-1369,425
1657083688770,-220,-1149,476
1657083688810,-114,-1275,432
1657083688850,-12,-1464,405
1657083688890,-170,-1450,336
1657083688930,-346,-1409,322
1657083688970,-355,-1427,336
1657083689010,-390,-1381,261
1657083689050,-532,-1169,128
1657083689090,-400,-1135,18
1657083689130,-192,-1598,197
1657083689170,-172,-1857,376
1657083689210,-203,-1749,543
1657083689250,-77,-1679,619
1657083689290,129,-1757,608
1657083689330,328,-1702,570
1657083689370,427,-1395,685
1657083689410,458,-1280,543
1657083689450,524,-1048,558
1657083689490,586,-693,546
1657083689530,658,-631,710
1657083689570,260,-423,448
1657083689610,273,-565,752
1657083689650,563,-463,704
1657083689690,704,-595,959
1657083689730,540,-742,1208
1657083689770,422,-935,1379
1657083689810,348,-1092,1486
1657083689850,182,-1364,1494
1657083689890,-29,-1558,1103
1657083689930,85,-1611,775
1657083689970,168,-1595,630
1657083690010,232,-1482,336
1657083690050,55,-1143,224
1657083690090,125,-869,215
1657083690130,368,-1177,676
1657083690170,221,-1379,925
1657083690210,7,-1149,1244
1657083690250,6,-977,1404
1657083690290,476,-1183,1578
1657083690330,806,-807,1322
1657083690370,568,-568,1296
1657083690410,519,-701,1111
1657083690450,696,-883,1103
1657083690490,564,-685,840
1657083690530,466,-569,837
1657083690570,231,-440,658
1657083690610,462,-613,601
1657083690650,753,-610,545
1657083690690,682,-525,503
1657083690730,292,-887,624
1657083690770,-68,-1335,730
1657083690810,327,-1597,766
1657083690850,281,-2046,823
1657083690890,-43,-2046,753
1657083690930,-319,-2046,537
1657083690970,-644,-1978,126
1657083691010,-695,-1550,-174
1657083691050,-427,-1064,-230
1657083691090,-156,-1205,-95
1657083691130,-53,-1516,199
1657083691170,-248,-1727,408
1657083691210,-304,-1687,456
1657083691250,-30,-1754,586
1657083691290,271,-1830,921
1657083691330,233,-1812,1004
1657083691370,348,-1326,748
1657083691410,382,-1424,553
1657083691450,517,-1230,474
1657083691490,444,-919,462
1657083691530,212,-686,370
1657083691570,138,-784,350
1657083691610,355,-976,275
1657083691650,411,-1082,202
1657083691690,106,-1041,212
1657083691730,-45,-994,290
1657083691770,-12,-1214,212
1657083691810,146,-1435,473
1657083691850,-5,-1766,439
1657083691890,-193,-1909,376
1657083691930,-421,-2033,316
1657083691970,-627,-1714,9
1657083692010,-609,-1285,-138
1657083692050,-275,-1009,-65
1657083692090,-88,-1307,96
1657083692130,-117,-1597,133
1657083692170,-273,-1505,227
1657083692210,-244,-1377,400
1657083692250,-35,-1516,535
1657083692290,201,-1638,554
1657083692330,296,-1555,558
1657083692370,327,-1412,512
1657083692410,438,-1251,455
1657083692450,458,-861,316
1657083692490,319,-879,259
1657083692530,182,-898,234
1657083692570,164,-977,340
1657083692610,161,-1031,383
1657083692650,81,-981,293
1657083692690,-20,-910,197
1657083692730,-16,-980,242
1657083692770,135,-1160,358
1657083692810,146,-1517,401
1657083692850,-112,-1839,284
1657083692890,-399,-1848,73
1657083692930,-541,-1808,144
1657083692970,-548,-1575,81
1657083693010,-379,-1253,6
1657083693050,-147,-1077,-12
1657083693090,33,-1377,205
1657083693130,-72,-1610,330
1657083693170,-276,-1498,328
1657083693210,-281,-1448,384
1657083693250,-57,-1570,579
1657083693290,180,-1666,535
1657083693330,353,-1456,548
1657083693370,431,-1214,466
1657083693410,507,-972,404
1657083693450,549,-735,265
1657083693490,349,-787,267
1657083693530,92,-813,294
1657083693570,-1,-1066,327
1657083693610,81,-1291,331
1657083693650,84,-1292,246
1657083693690,-55,-1160,200
1657083693730,-154,-1134,211
1657083693770,-21,-1191,241
1657083693810,-6,-1317,184
1657083693850,-133,-1388,129
1657083693890,-206,-1446,97
1657083693930,-222,-1655,165
1657083693970,-381,-1526,157
1657083694010,-466,-1385,300
1657083694050,-441,-1005,172
1657083694090,-225,-1215,215
1657083694130,-170,-1577,258
1657083694170,-226,-1564,252
1657083694210,-230,-1494,357
1657083694250,124,-1516,479
1657083694290,172,-1675,499
1657083694330,321,-1463,567
1657083694370,291,-1269,509
1657083694410,415,-1188,328
1657083694450,577,-975,431
1657083694490,503,-890,326
1657083694530,211,-852,220
1657083694570,-25,-908,303
1657083694610,91,-1224,285
1657083694650,240,-1229,225
1657083694690,111,-1088,282
1657083694730,-101,-1088,284
1657083694770,-84,-1222,258
1657083694810,35,-1428,166
1657083694850,-29,-1517,183
1657083694890,-161,-1640,238
1657083694930,-266,-1778,306
1657083694970,-502,-1636,235
1657083695010,-710,-1454,135
1657083695050,-476,-1112,-103
1657083695090,-85,-1363,7
1657083695130,-36,-1594,247
1657083695170,-347,-1633,444
1657083695210,-315,-1613,518
1657083695250,126,-1699,539
1657083695290,287,-1766,545
1657083695330,444,-1504,566
1657083695370,353,-1231,452
1657083695410,311,-1304,275
1657083695450,431,-1162,278
1657083695490,397,-1030,350
1657083695530,268,-920,324
1657083695570,95,-910,391
1657083695610,60,-1087,348
1657083695650,150,-1163,203
1657083695690,150,-917,213
1657083695730,86,-866,297
1657083695770,139,-1145,298
1657083695810,239,-1563,439
1657083695850,81,-1954,440
1657083695890,-170,-2046,396
1657083695930,-404,-2046,308
1657083695970,-598,-1883,129
1657083696010,-703,-1628,-57
1657083696050,-441,-1182,-208
1657083696090,-116,-1290,-45
1657083696130,-3,-1529,207
1657083696170,-97,-1523,344
1657083696210,-162,-1423,347
1657083696250,-10,-1522,377
1657083696290,116,-1595,399
1657083696330,252,-1500,452
1657083696370,206,-1470,563
1657083696410,213,-1602,487
1657083696450,260,-1569,436
1657083696490,201,-1290,484
1657083696530,228,-907,424
1657083696570,327,-741,376
1657083696610,565,-734,229
1657083696650,566,-809,104
1657083696690,220,-873,155
1657083696730,105,-883,209
1657083696770,159,-1177,259
1657083696810,259,-1606,283
1657083696850,90,-2044,450
1657083696890,-140,-2046,472
1657083696930,-468,-2046,311
1657083696970,-684,-1990,-7
1657083697010,-603,-1653,-239
1657083697050,-290,-1102,-247
1657083697090,-62,-1151,-28
1657083697130,-44,-1403,238
1657083697170,-118,-1520,333
1657083697210,-189,-1513,326
1657083697250,-98,-1558,344
1657083697290,98,-1610,387
1657083697330,206,-1578,445
1657083697370,206,-1497,522
1657083697410,302,-1596,530
1657083697450,434,-1453,553
1657083697490,356,-1056,495
1657083697530,248,-790,262
1657083697570,441,-719,194
1657083697610,604,-826,173
1657083697650,346,-963,239
1657083697690,139,-944,298
1657083697730,67,-1023,296
1657083697770,54,-1395,144
1657083697810,158,-1796,347
1657083697850,-56,-2046,317
1657083697890,-421,-2034,195
1657083697930,-698,-1954,151
1657083697970,-562,-1711,25
1657083698010,-280,-1517,77
1657083698050,-212,-938,-43
1657083698090,-133,-1014,25
1657083698130,-81,-1406,127
1657083698170,-154,-1586,145
1657083698210,-264,-1449,162
1657083698250,-177,-1410,230
1657083698290,-24,-1494,398
1657083698330,219,-1460,520
1657083698370,274,-1350,595
1657083698410,286,-1332,555
1657083698450,430,-1291,650
1657083698490,422,-870,582
1657083698530,316,-693,510
1657083698570,219,-644,482
1657083698610,390,-867,483
1657083698650,538,-962,403
1657083698690,378,-890,466
1657083698730,139,-830,518
1657083698770,66,-945,241
1657083698810,174,-1382,429
1657083698850,-120,-1857,372
1657083698890,-546,-1934,457
1657083698930,-698,-1719,462
1657083698970,-501,-1548,388
1657083699010,-421,-1501,245
1657083699050,-453,-1283,1
1657083699090,-348,-1417,156
1657083699130,-200,-1780,426
1657083699170,-166,-1630,642
1657083699210,-121,-1313,797
1657083699250,156,-1361,802
1657083699290,352,-1272,682
1657083699330,483,-1165,586
1657083699370,393,-1028,441
1657083699410,379,-985,520
1657083699450,530,-922,541
1657083699490,475,-662,459
1657083699530,377,-703,475
1657083699570,209,-730,470
1657083699610,302,-1003,606
1657083699650,443,-1280,630
1657083699690,217,-1328,591
1657083699730,-99,-1166,418
1657083699770,-75,-1148,266
1657083699810,21,-1335,184
1657083699850,-48,-1445,153
1657083699890,-227,-1469,66
1657083699930,-273,-1517,173
1657083699970,-328,-1551,197
1657083700010,-379,-1580,229
1657083700050,-301,-1171,67
1657083700090,-155,-1338,173
1657083700130,-70,-1684,371
1657083700170,-148,-1621,413
1657083700210,-157,-1387,491
1657083700250,-8,-1265,535
1657083700290,123,-1258,477
1657083700330,305,-1183,520
1657083700370,338,-1072,413
1657083700410,286,-1150,415
1657083700450,367,-1172,484
1657083700490,291,-899,541
1657083700530,240,-780,477
1657083700570,263,-663,421
1657083700610,391,-737,528
1657083700650,405,-912,575
1657083700690,196,-1053,498
1657083700730,4,-1068,358
1657083700770,19,-1158,230
1657083700810,61,-1362,296
1657083700850,-23,-1499,316
1657083700890,-196,-1589,282
1657083700930,-296,-1619,245
1657083700970,-270,-1699,237
1657083701010,-279,-1568,177
1657083701050,-288,-1108,29
1657083701090,-179,-1068,-58
1657083701130,-60,-1454,140
1657083701170,-122,-1758,290
1657083701210,-193,-1646,466
1657083701250,-87,-1533,639
1657083701290,25,-1463,643
1657083701330,169,-1495,722
1657083701370,502,-1072,452
1657083701410,389,-770,426
1657083701450,409,-663,359
1657083701490,505,-745,408
1657083701530,407,-980,430
1657083701570,157,-983,430
1657083701610,22,-991,600
1657083701650,295,-1088,679
1657083701690,374,-1126,694
1657083701730,59,-1078,612
1657083701770,-66,-1090,345
1657083701810,-68,-1202,197
1657083701850,-30,-1339,158
1657083701890,-71,-1357,220
1657083701930,-118,-1402,329
1657083701970,-133,-1546,418
1657083702010,-313,-1479,233
1657083702050,-332,-1254,49
1657083702090,-182,-1050,9
1657083702130,39,-1329,309
1657083702170,72,-1521,495
1657083702210,-139,-1471,532
1657083702250,-61,-1195,558
1657083702290,630,-974,587
1657083702330,309,-971,697
1657083702370,426,-789,702
1657083702410,394,-809,712
1657083702450,523,-936,789
1657083702490,585,-901,868
1657083702530,437,-728,808
1657083702570,312,-499,638
1657083702610,206,-530,661
1657083702650,411,-693,677
1657083702690,366,-863,591
1657083702730,174,-785,485
1657083702770,172,-513,537
1657083702810,168,-679,649
1657083702850,173,-996,791
1657083702890,101,-1274,916
1657083702930,-96,-1522,935
1657083702970,-288,-1742,1008
1657083703010,-410,-1524,799
1657083703050,-123,-1177,735
1657083703090,-61,-821,447
1657083703130,135,-933,695
1657083703170,219,-1273,876
1657083703210,48,-1312,808
1657083703250,4,-1104,712
1657083703290,108,-976,811
1657083703330,364,-777,925
1657083703370,441,-611,922
1657083703410,410,-721,854
1657083703450,478,-943,961
1657083703490,468,-865,1064
1657083703530,326,-703,1052
1657083703570,344,-569,794
1657083703610,461,-608,738
1657083703650,578,-623,492
1657083703690,519,-658,336
1657083703730,316,-717,306
1657083703770,245,-822,234
1657083703810,340,-960,332
1657083703850,482,-1298,637
1657083703890,379,-1875,873
1657083703930,-50,-2046,855
1657083703970,-496,-2046,630
1657083704010,-681,-1955,147
1657083704050,-491,-1509,-247
1657083704090,-188,-1067,-266
1657083704130,-84,-1238,23
1657083704170,-53,-1791,320
1657083704210,-114,-2046,549
1657083704250,-155,-2046,660
1657083704290,128,-2023,772
1657083704330,456,-1951,833
1657083704370,474,-1801,786
1657083704410,368,-1565,724
1657083704450,470,-1379,768
1657083704490,624,-1022,642
1657083704530,622,-452,384
1657083704570,520,-278,303
1657083704610,503,-320,298
1657083704650,624,-648,359
1657083704690,647,-1163,524
1657083704730,440,-1748,608
1657083704770,130,-2037,523
1657083704810,74,-2046,-82
1657083704850,138,-1911,256
1657083704890,-435,-2046,921
1657083704930,-484,-1881,-123
1657083704970,-528,-1458,1
1657083705010,-249,-1397,259
1657083705050,-174,-1422,231
1657083705090,-270,-1211,240
1657083705130,-333,-874,148
1657083705170,-177,-1226,296
1657083705210,-68,-1716,407
1657083705250,-160,-1706,315
1657083705290,-155,-1571,318
1657083705330,107,-1500,478
1657083705370,169,-1611,416
1657083705410,355,-1457,496
1657083705450,313,-1270,537
1657083705490,395,-1271,445
1657083705530,451,-1148,383
1657083705570,295,-1070,384
1657083705610,192,-874,368
1657083705650,281,-941,396
1657083705690,449,-1011,291
1657083705730,327,-1024,218
1657083705770,60,-930,179
1657083705810,6,-989,85
1657083705850,197,-1216,89
1657083705890,88,-1790,356
1657083705930,-138,-2046,345
1657083705970,-636,-2011,200
1657083706010,-704,-1790,164
1657083706050,-440,-1574,73
1657083706090,-249,-1301,-3
1657083706130,-187,-1004,-92
1657083706170,-198,-1339,27
1657083706210,-227,-1658,152
1657083706250,-250,-1615,287
1657083706290,-151,-1515,428
1657083706330,170,-1551,567
1657083706370,225,-1569,439
1657083706410,325,-1364,486
1657083706450,232,-1245,490
1657083706490,316,-1281,416
1657083706530,422,-1137,375
1657083706570,432,-1048,424
1657083706610,439,-760,321
1657083706650,495,-670,408
1657083706690,416,-1100,410
1657083706730,279,-1331,266
1657083706770,108,-1262,204
1657083706810,-104,-1477,122
1657083706850,0,-1562,226
1657083706890,-2,-1774,184
1657083706930,-195,-1742,200
1657083706970,-328,-1685,235
1657083707010,-309,-1643,330
1657083707050,-361,-1482,231
1657083707090,-381,-1369,178
1657083707130,-272,-1034,63
1657083707170,-88,-1335,233
1657083707210,-14,-1831,472
1657083707250,-90,-1860,567
1657083707290,-68,-1763,660
1657083707330,249,-1705,862
1657083707370,354,-1773,807
1657083707410,648,-1435,749
1657083707450,617,-1085,697
1657083707490,638,-895,559
1657083707530,634,-620,414
1657083707570,469,-428,435
1657083707610,280,-446,493
1657083707650,356,-777,697
1657083707690,699,-1338,904
1657083707730,486,-1669,889
1657083707770,166,-1371,575
1657083707810,206,-1158,265
1657083707850,262,-1080,177
1657083707890,527,-995,684
1657083707930,579,-1044,1105
1657083707970,-256,-2046,1145
1657083708010,-1962,-2046,523
1657083708050,-554,-1596,666
1657083708090,217,-1216,984
1657083708130,44,-1721,-92
1657083708170,-96,-1803,-30
1657083708210,314,-2046,1072
1657083708250,559,-2046,1646
1657083708290,346,-1495,1564
1657083708330,537,-1231,1515
1657083708370,819,-1191,1392
1657083708410,821,-951,1127
1657083708450,645,-578,893
1657083708490,650,-461,617
1657083708530,737,-309,319
1657083708570,593,-226,246
1657083708610,469,-442,485
1657083708650,445,-712,632
1657083708690,635,-1086,877
1657083708730,677,-1524,1169
1657083708770,280,-1588,1136
1657083708810,62,-1467,842
1657083708850,10,-1428,681
1657083708890,73,-1528,842
1657083708930,-58,-1400,771
1657083708970,-119,-1318,635
1657083709010,-28,-1227,696
1657083709050,-60,-1312,763
1657083709090,-266,-1344,644
1657083709130,-414,-1045,431
1657083709170,-244,-972,424
1657083709210,79,-1261,770
1657083709250,200,-1479,854
1657083709290,103,-1387,722
1657083709330,533,-1091,868
1657083709370,-76,-1856,812
1657083709410,661,-885,1044
1657083709450,449,-911,765
1657083709490,365,-1139,896
1657083709530,529,-1019,986
1657083709570,496,-838,969
1657083709610,485,-620,922
1657083709650,289,-459,839
1657083709690,390,-650,794
1657083709730,506,-685,546
1657083709770,355,-622,371
1657083709810,195,-669,230
1657083709850,248,-720,229
1657083709890,451,-946,568
1657083709930,523,-1369,1010
1657083709970,262,-1894,1322
1657083710010,-196,-2011,1285
1657083710050,-419,-1788,1016
1657083710090,-477,-1561,694
1657083710130,-275,-1112,345
1657083710170,-198,-958,200
1657083710210,-179,-1265,364
1657083710250,-156,-1618,580
1657083710290,-161,-1610,775
1657083710330,-16,-1502,841
1657083710370,211,-1601,851
1657083710410,407,-1617,856
1657083710450,464,-1373,750
1657083710490,338,-1234,609
1657083710530,305,-1235,505
1657083710570,429,-1130,462
1657083710610,428,-874,413
1657083710650,322,-685,332
1657083710690,245,-708,319
1657083710730,367,-911,288
1657083710770,390,-1076,293
1657083710810,184,-1125,325
1657083710850,16,-1221,295
1657083710890,-51,-1474,105
1657083710930,-94,-1843,406
1657083710970,-344,-1877,260
1657083711010,-498,-1778,288
1657083711050,-612,-1678,382
1657083711090,-613,-1621,271
1657083711130,-470,-1385,102
1657083711170,-303,-1100,4
1657083711210,-213,-1316,241
1657083711250,-184,-1574,376
1657083711290,-227,-1495,417
1657083711330,-185,-1396,506
1657083711370,-1,-1403,660
1657083711410,253,-1373,619
1657083711450,353,-1223,542
1657083711490,241,-1042,446
1657083711530,198,-1139,412
1657083711570,344,-1149,396
1657083711610,308,-934,427
1657083711650,171,-828,442
1657083711690,136,-822,433
1657083711730,266,-1115,376
1657083711770,123,-1380,218
1657083711810,22,-1082,146
1657083711850,-163,-892,126
1657083711890,-147,-976,82
1657083711930,-82,-1215,252
1657083711970,-122,-1363,288
1657083712010,-351,-1665,307
1657083712050,-556,-1716,320
1657083712090,-599,-1739,320
1657083712130,-510,-1581,188
1657083712170,-326,-1088,42
1657083712210,-202,-1059,107
1657083712250,-96,-1465,270
1657083712290,-123,-1666,270
1657083712330,-234,-1440,271
1657083712370,-94,-1241,327
1657083712410,15,-1316,366
1657083712450,223,-1329,438
1657083712490,249,-1140,490
1657083712530,296,-1055,431
1657083712570,365,-1095,402
1657083712610,453,-947,375
1657083712650,271,-900,395
1657083712690,57,-770,341
1657083712730,54,-918,374
1657083712770,279,-1208,379
1657083712810,256,-1342,312
1657083712850,-81,-1229,190
1657083712890,-295,-1243,-16
1657083712930,-120,-1155,158
1657083712970,-27,-1250,149
1657083713010,-122,-1368,190
1657083713050,-236,-1458,226
1657083713090,-294,-1577,366
1657083713130,-425,-1633,237
1657083713170,-570,-1494,95
1657083713210,-436,-1019,-50
1657083713250,-190,-1198,185
1657083713290,-51,-1588,353
1657083713330,-119,-1613,274
1657083713370,-179,-1457,268
1657083713410,-75,-1398,416
1657083713450,132,-1404,465
1657083713490,262,-1263,495
1657083713530,264,-973,482
1657083713570,256,-993,434
1657083713610,361,-1127,402
1657083713650,394,-1011,318
1657083713690,234,-962,259
1657083713730,86,-873,313
1657083713770,188,-1098,382
1657083713810,277,-1238,317
1657083713850,115,-1154,255
1657083713890,-80,-1013,212
1657083713930,-90,-1109,-5
1657083713970,10,-1318,195
1657083714010,-66,-1499,164
1657083714050,-289,-1566,219
1657083714090,-470,-1635,326
1657083714130,-560,-1650,291
1657083714170,-462,-1529,137
1657083714210,-298,-1122,-19
1657083714250,-158,-1072,44
1657083714290,-86,-1514,228
1657083714330,-132,-1756,264
1657083714370,-230,-1580,307
1657083714410,-93,-1540,538
1657083714450,161,-1294,689
1657083714490,383,-1071,691
1657083714530,479,-856,845
1657083714570,412,-720,738
1657083714610,544,-804,759
1657083714650,577,-670,639
1657083714690,431,-591,618
1657083714730,182,-471,467
1657083714770,300,-745,646
1657083714810,513,-1043,485
1657083714850,428,-1373,412
1657083714890,72,-1191,388
1657083714930,-348,-888,67
1657083714970,19,-1030,296
1657083715010,38,-1344,282
1657083715050,-111,-1489,275
1657083715090,-293,-1511,281
1657083715130,-422,-1646,419
1657083715170,-523,-1601,285
1657083715210,-486,-1430,141
1657083715250,-242,-1226,58
1657083715290,-100,-1491,379
1657083715330,-94,-1560,454
1657083715370,-98,-1409,455
1657083715410,-49,-1263,477
1657083715450,132,-1358,706
1657083715490,355,-1027,644
1657083715530,412,-856,656
1657083715570,295,-799,646
1657083715610,427,-886,719
1657083715650,550,-951,849
1657083715690,394,-700,867
1657083715730,263,-493,736
1657083715770,271,-527,655
1657083715810,521,-881,627
1657083715850,478,-1037,527
1657083715890,147,-1071,402
1657083715930,84,-898,332
1657083715970,152,-939,567
1657083716010,171,-1268,694
1657083716050,-7,-1535,749
1657083716090,-298,-1514,665
1657083716130,-422,-1501,775
1657083716170,-340,-1493,748
1657083716210,-148,-1362,710
1657083716250,-144,-989,446
1657083716290,-70,-903,525
1657083716330,80,-1198,766
1657083716370,58,-1392,729
1657083716410,-43,-1248,699
1657083716450,16,-1145,749
1657083716490,213,-1114,864
1657083716530,325,-1055,885
1657083716570,366,-857,784
1657083716610,467,-776,707
1657083716650,634,-771,582
1657083716690,525,-525,533
1657083716730,433,-444,663
1657083716770,287,-465,672
1657083716810,438,-629,831
1657083716850,568,-894,955
1657083716890,351,-1078,876
1657083716930,124,-956,673
1657083716970,0,-1198,523
1657083717010,142,-1029,531
1657083717050,172,-1113,660
1657083717090,74,-1163,671
1657083717130,4,-1236,815
1657083717170,-143,-1391,876
1657083717210,-307,-1457,873
1657083717250,-384,-1216,621
1657083717290,-182,-1102,611
1657083717330,85,-1307,959
1657083717370,141,-1365,994
1657083717410,95,-1161,890
1657083717450,141,-988,893
1657083717490,289,-888,940
1657083717530,384,-748,944
1657083717570,362,-667,829
1657083717610,370,-665,782
1657083717650,516,-730,827
1657083717690,597,-665,769
1657083717730,433,-625,774
1657083717770,250,-519,726
1657083717810,242,-611,820
1657083717850,359,-828,867
1657083717890,270,-988,749
1657083717930,72,-946,587
1657083717970,-63,-795,236
1657083718010,104,-988,527
1657083718050,144,-1130,594
1657083718090,39,-1284,684
1657083718130,-65,-1353,694
1657083718170,-127,-1368,807
1657083718210,-285,-1331,730
1657083718250,-356,-1227,705
1657083718290,-296,-895,495
1657083718330,-61,-1026,665
1657083718370,44,-1377,793
1657083718410,-41,-1510,557
1657083718450,-71,-1331,525
1657083718490,-47,-1242,642
1657083718530,312,-1251,820
1657083718570,466,-1135,852
1657083718610,443,-936,821
1657083718650,472,-875,792
1657083718690,617,-822,760
1657083718730,565,-585,584
1657083718770,382,-692,551
1657083718810,209,-729,546
1657083718850,326,-882,595
1657083718890,445,-891,564
1657083718930,272,-872,453
1657083718970,176,-764,576
1657083719010,144,-834,760
1657083719050,239,-1079,894
1657083719090,121,-1341,981
1657083719130,-118,-1519,838
1657083719170,-256,-1612,764
1657083719210,-246,-1614,678
1657083719250,-90,-1479,702
1657083719290,-1,-1114,432
1657083719330,178,-1128,214
1657083719370,126,-1655,245
1657083719410,222,-1666,651
1657083719450,145,-1163,966
1657083719490,-108,-1060,987
1657083719530,224,-884,977
1657083719570,516,-877,744
1657083719610,544,-862,630
1657083719650,357,-917,680
1657083719690,508,-1107,725
1657083719730,465,-871,727
1657083719770,313,-725,767
1657083719810,151,-638,578
1657083719850,288,-694,477
1657083719890,455,-831,442
1657083719930,332,-924,405
1657083719970,44,-894,410
1657083720010,14,-966,350
1657083720050,66,-1096,358
1657083720090,71,-1255,500
1657083720130,46,-1515,738
1657083720170,-71,-1641,868
1657083720210,-311,-1516,668
1657083720250,-454,-1334,379
1657083720290,-380,-1087,100
1657083720330,-52,-1306,323
1657083720370,-58,-1611,417
1657083720410,-449,-1451,385
1657083720450,-459,-1265,619
1657083720490,111,-978,714
1657083720530,931,-1064,682
1657083720570,269,-1017,511
1657083720610,547,-840,628
1657083720650,392,-1030,460
1657083720690,413,-1130,500
1657083720730,333,-938,602
1657083720770,281,-849,731
1657083720810,377,-803,768
1657083720850,675,-776,657
1657083720890,581,-821,591
1657083720930,300,-672,474
1657083720970,148,-758,450
1657083721010,221,-900,499
1657083721050,342,-1211,631
1657083721090,325,-1372,738
1657083721130,259,-1483,820
1657083721170,122,-1642,976
1657083721210,-247,-1599,804
1657083721250,-658,-1474,689
1657083721290,-677,-1124,503
1657083721330,-127,-1126,633
1657083721370,124,-1413,731
1657083721410,67,-1550,775
1657083721450,71,-1434,764
1657083721490,256,-1383,839
1657083721530,466,-1349,967
1657083721570,561,-1160,918
1657083721610,511,-930,829
1657083721650,404,-989,767
1657083721690,548,-1124,849
1657083721730,592,-943,846
1657083721770,494,-640,767
1657083721810,349,-433,670
1657083721850,415,-604,614
1657083721890,555,-675,498
1657083721930,366,-788,501
1657083721970,290,-770,445
1657083722010,371,-817,578
1657083722050,503,-924,943
1657083722090,414,-1334,1282
1657083722130,134,-1564,1313
1657083722170,-38,-1536,1369
1657083722210,-342,-1518,1193
1657083722250,-375,-1332,995
1657083722290,-394,-936,604
1657083722330,-481,-1123,508
1657083722370,-383,-1792,547
1657083722410,-59,-1985,1061
1657083722450,195,-1900,1323
1657083722490,371,-1892,1389
1657083722530,550,-1952,1330
1657083722570,668,-1789,1262
1657083722610,583,-1435,921
1657083722650,585,-1138,739
1657083722690,688,-876,536
1657083722730,710,-454,240
1657083722770,603,-354,168
1657083722810,417,-563,295
1657083722850,501,-932,451
1657083722890,593,-1369,571
1657083722930,422,-1791,755
1657083722970,126,-1825,719
1657083723010,50,-2018,517
1657083723050,62,-2046,645
1657083723090,-108,-2046,551
1657083723130,-363,-1879,401
1657083723170,-490,-1636,291
1657083723210,-446,-1459,205
1657083723250,-380,-1419,127
1657083723290,-375,-1171,24
1657083723330,-230,-1378,125
1657083723370,-21,-1715,440
1657083723410,-69,-1853,594
1657083723450,-49,-1799,659
1657083723490,250,-1726,732
1657083723530,315,-1808,713
1657083723570,467,-1610,651
1657083723610,404,-1280,599
1657083723650,305,-1210,530
1657083723690,426,-1233,498
1657083723730,529,-986,423
1657083723770,439,-744,350
1657083723810,287,-659,243
1657083723850,498,-743,222
1657083723890,742,-961,382
1657083723930,388,-1458,486
1657083723970,103,-1587,499
1657083724010,34,-1858,391
1657083724050,66,-2046,559
1657083724090,-202,-2046,539
1657083724130,-653,-1967,358
1657083724170,-618,-1699,215
1657083724210,-227,-1548,364
1657083724250,-132,-1290,231
1657083724290,-300,-1049,35
1657083724330,-306,-958,-35
1657083724370,-153,-1402,239
1657083724410,-104,-1881,420
1657083724450,-181,-1944,501
1657083724490,-76,-1836,626
1657083724530,149,-1810,727
1657083724570,416,-1685,818
1657083724610,531,-1352,833
1657083724650,430,-1081,605
1657083724690,315,-1054,456
1657083724730,396,-944,404
1657083724770,430,-794,412
1657083724810,357,-627,411
1657083724850,314,-713,498
1657083724890,380,-908,553
1657083724930,393,-1166,481
1657083724970,39,-1428,202
1657083725010,39,-1374,187
1657083725050,-48,-1185,-117
1657083725090,47,-1839,836
1657083725130,-219,-2038,423
1657083725170,-343,-1846,58
1657083725210,-449,-1822,-16
1657083725250,-367,-1594,-91
1657083725290,-235,-1338,64
1657083725330,-176,-898,28
1657083725370,-13,-1209,245
1657083725410,60,-1600,457
1657083725450,-131,-1536,405
1657083725490,-239,-1428,342
1657083725530,-66,-1384,397
1657083725570,159,-1473,507
1657083725610,397,-1385,590
1657083725650,369,-1148,570
1657083725690,286,-1218,433
1657083725730,308,-1329,392
1657083725770,-209,-1444,387
1657083725810,-1219,-1691,267
1657083725850,-1719,-1865,-47
1657083725890,-1335,-1607,-425
1657083725930,-1022,-1034,-637
1657083725970,-848,-476,-211
1657083726010,-537,-233,49
1657083726050,-342,18,269
1657083726090,-453,294,737
1657083726130,-404,453,575
1657083726170,88,630,453
1657083726210,765,786,-47
1657083726250,892,815,-347
1657083726290,762,704,-880
1657083726330,524,667,-748
1657083726370,237,776,-615
1657083726410,89,608,-1043
1657083726450,162,671,-752
1657083726490,213,702,-588
1657083726530,223,517,-588
1657083726570,132,454,-470
1657083726610,70,478,-441
1657083726650,172,608,-435
1657083726690,236,658,-809
1657083726730,714,781,-166
1657083726770,934,693,-82
1657083726810,992,415,331
1657083726850,944,-273,697
1657083726890,863,-1333,916
1657083726930,863,-2046,1109
1657083726970,965,-2046,1629
1657083727010,1688,-2046,2046
1657083727050,1714,-2046,2046
1657083727090,-146,-2046,1882
1657083727130,-799,-2046,406
1657083727170,-264,-1864,279
1657083727210,643,-1579,1062
1657083727250,673,-572,407
1657083727290,159,-853,767
1657083727330,-149,-860,889
1657083727370,-569,-582,892
1657083727410,-824,-1181,840
1657083727450,-383,-1686,919
1657083727490,-34,-1988,1114
1657083727530,265,-1963,1235
1657083727570,513,-1924,1206
1657083727610,727,-1787,1267
1657083727650,795,-1428,1073
1657083727690,654,-1115,758
1657083727730,503,-850,586
1657083727770,612,-765,609
1657083727810,639,-676,606
1657083727850,480,-471,505
1657083727890,356,-480,576
1657083727930,417,-616,589
1657083727970,558,-777,633
1657083728010,525,-897,736
1657083728050,401,-1139,875
1657083728090,288,-1276,832
1657083728130,314,-1678,980
1657083728170,172,-1974,1004
1657083728210,-138,-1842,968
1657083728250,-290,-1611,981
1657083728290,-402,-1464,938
1657083728330,-383,-1261,717
1657083728370,-427,-1008,451
1657083728410,-332,-1036,383
1657083728450,-276,-1437,515
1657083728490,-210,-1713,654
1657083728530,-41,-1585,850
1657083728570,182,-1581,1081
1657083728610,469,-1520,1145
1657083728650,616,-1435,1119
1657083728690,610,-1313,959
1657083728730,520,-1256,843
1657083728770,678,-1121,807
1657083728810,605,-614,589
1657083728850,500,-528,571
1657083728890,429,-572,580
1657083728930,537,-647,695
1657083728970,724,-679,719
1657083729010,774,-714,792
1657083729050,487,-926,968
1657083729090,414,-1285,990
1657083729130,553,-1620,1065
1657083729170,473,-2046,1189
1657083729210,-112,-2046,924
1657083729250,-643,-1867,666
1657083729290,-819,-1584,639
1657083729330,-338,-1270,534
1657083729370,-59,-1040,290
1657083729410,-29,-1336,263
1657083729450,-61,-1875,599
1657083729490,-108,-2045,1004
1657083729530,-16,-1883,1182
1657083729570,414,-1799,1498
1657083729610,743,-1686,1360
1657083729650,936,-1562,1197
1657083729690,642,-1042,1035
1657083729730,441,-614,855
1657083729770,574,-508,574
1657083729810,673,-331,365
1657083729850,581,-526,417
1657083729890,422,-649,502
1657083729930,440,-883,725
1657083729970,609,-1158,1057
1657083730010,574,-1409,1242
1657083730050,174,-1559,1046
1657083730090,158,-1734,1035
1657083730130,98,-1858,686
1657083730170,13,-1891,404
1657083730210,-257,-1734,160
1657083730250,-316,-1489,123
1657083730290,-64,-1372,250
1657083730330,-46,-1199,243
1657083730370,-246,-1091,302
1657083730410,-320,-960,293
1657083730450,-181,-1338,437
1657083730490,-114,-1730,549
1657083730530,-248,-1841,590
1657083730570,-130,-1821,651
1657083730610,179,-1874,766
1657083730650,363,-1846,692
1657083730690,457,-1498,722
1657083730730,437,-1062,554
1657083730770,402,-952,511
1657083730810,494,-835,522
1657083730850,532,-581,519
1657083730890,474,-499,549
1657083730930,305,-575,600
1657083730970,322,-834,697
1657083731010,438,-1016,679
1657083731050,286,-1122,712
1657083731090,192,-1068,729
1657083731130,182,-1498,572
1657083731170,46,-1589,673
1657083731210,28,-1710,506
1657083731250,-166,-1611,361
1657083731290,-121,-1544,286
1657083731330,15,-1444,423
1657083731370,-146,-1452,385
1657083731410,-444,-1215,128
1657083731450,-483,-1148,-75
1657083731490,-243,-1526,125
1657083731530,-156,-1762,351
1657083731570,-130,-1684,555
1657083731610,-13,-1595,657
1657083731650,224,-1701,745
1657083731690,441,-1672,836
1657083731730,489,-1339,823
1657083731770,378,-1238,791
1657083731810,313,-1169,657
1657083731850,422,-959,522
1657083731890,438,-717,404
1657083731930,393,-539,265
1657083731970,422,-526,308
1657083732010,491,-682,414
1657083732050,366,-961,483
1657083732090,148,-1087,437
1657083732130,58,-1266,328
1657083732170,149,-1488,412
1657083732210,38,-1806,531
1657083732250,-158,-1985,506
1657083732290,-458,-1839,235
1657083732330,-417,-1818,174
1657083732370,-371,-1472,7
1657083732410,-286,-1123,40
1657083732450,-173,-931,114
1657083732490,-24,-1402,335
1657083732530,-44,-1804,482
1657083732570,-239,-1700,416
1657083732610,-222,-1549,450
1657083732650,81,-1521,580
1657083732690,296,-1575,660
1657083732730,405,-1442,666
1657083732770,391,-1109,605
1657083732810,331,-1004,458
1657083732850,453,-970,373
1657083732890,516,-683,325
1657083732930,403,-621,370
1657083732970,162,-685,408
1657083733010,214,-1062,494
1657083733050,360,-1500,452
1657083733090,151,-1557,352
1657083733130,-227,-1318,487
1657083733170,-58,-1067,185
1657083733210,-91,-1440,282
1657083733250,-112,-1502,188
1657083733290,-261,-1428,151
1657083733330,-285,-1409,260
1657083733370,-231,-1423,362
1657083733410,-304,-1303,293
1657083733450,-319,-1136,190
1657083733490,-189,-1091,120
1657083733530,-82,-1487,190
1657083733570,-118,-1804,273
1657083733610,-262,-1658,334
1657083733650,-182,-1469,423
1657083733690,57,-1522,530
1657083733730,303,-1434,521
1657083733770,376,-1158,564
1657083733810,309,-988,509
1657083733850,269,-1119,378
1657083733890,359,-1078,319
1657083733930,282,-929,332
1657083733970,206,-887,319
1657083734010,153,-898,336
1657083734050,223,-1084,338
1657083734090,245,-1176,318
1657083734130,69,-1104,268
1657083734170,-77,-1035,116
1657083734210,-15,-1087,-82
1657083734250,-4,-1434,240
1657083734290,-125,-1590,219
1657083734330,-367,-1546,256
1657083734370,-445,-1562,376
1657083734410,-315,-1582,327
1657083734450,-285,-1450,150
1657083734490,-356,-1141,25
1657083734530,-218,-1002,13
1657083734570,-82,-1362,185
1657083734610,-101,-1666,267
1657083734650,-259,-1519,249
1657083734690,-239,-1390,284
1657083734730,-38,-1437,485
1657083734770,257,-1382,472
1657083734810,309,-1156,497
1657083734850,264,-1077,480
1657083734890,264,-1273,415
1657083734930,309,-1167,366
1657083734970,211,-1051,438
1657083735010,97,-819,395
1657083735050,156,-897,347
1657083735090,323,-1040,265
1657083735130,299,-1025,200
1657083735170,61,-904,173
1657083735210,-30,-884,127
1657083735250,111,-957,52
1657083735290,121,-1397,259
1657083735330,-16,-1721,301
1657083735370,-307,-1810,309
1657083735410,-492,-1807,349
1657083735450,-452,-1648,169
1657083735490,-350,-1388,42
1657083735530,-256,-935,-27
1657083735570,-52,-1068,134
1657083735610,30,-1482,317
1657083735650,-148,-1684,216
1657083735690,-371,-1583,123
1657083735730,-238,-1558,231
1657083735770,114,-1642,404
1657083735810,395,-1517,525
1657083735850,365,-1215,552
1657083735890,311,-1105,507
1657083735930,373,-1109,410
1657083735970,407,-814,369
1657083736010,253,-861,346
1657083736050,166,-950,241
1657083736090,221,-1136,235
1657083736130,290,-1223,200
1657083736170,223,-1114,285
1657083736210,19,-1047,317
1657083736250,-132,-1240,82
1657083736290,38,-1481,341
1657083736330,-27,-1694,240
1657083736370,-271,-1768,260
1657083736410,-577,-1728,273
1657083736450,-580,-1675,234
1657083736490,-409,-1499,92
1657083736530,-252,-1269,61
1657083736570,-105,-1024,67
1657083736610,6,-1373,271
1657083736650,-55,-1718,317
1657083736690,-220,-1657,258
1657083736730,-213,-1569,302
1657083736770,1,-1618,477
1657083736810,207,-1622,406
1657083736850,342,-1336,539
1657083736890,285,-1146,540
1657083736930,338,-1143,422
1657083736970,453,-966,351
1657083737010,351,-770,361
1657083737050,171,-693,318
1657083737090,171,-870,322
1657083737130,346,-1178,299
1657083737170,281,-1361,267
1657083737210,-6,-1260,247
1657083737250,-132,-1185,168
1657083737290,138,-795,-115
1657083737330,-74,-1526,603
1657083737370,-229,-1699,79
1657083737410,-436,-1613,41
1657083737450,-423,-1553,129
1657083737490,-345,-1548,159
1657083737530,-297,-1481,181
1657083737570,-304,-1014,50
1657083737610,-227,-974,61
1657083737650,-167,-1424,180
1657083737690,-211,-1634,163
1657083737730,-301,-1498,208
1657083737770,-171,-1435,325
1657083737810,41,-1504,383
1657083737850,251,-1457,407
1657083737890,276,-1258,486
1657083737930,297,-1178,457
1657083737970,379,-1179,377
1657083738010,409,-967,314
1657083738050,260,-900,325
1657083738090,151,-789,358
1657083738130,181,-953,382
1657083738170,338,-1168,338
1657083738210,231,-1202,278
1657083738250,-59,-1100,188
1657083738290,-474,-1773,-500
1657083738330,37,-1191,92
1657083738370,-92,-1505,578
1657083738410,-208,-1548,36
1657083738450,-369,-1639,286
1657083738490,-510,-1708,264
1657083738530,-508,-1486,45
1657083738570,-342,-1296,16
1657083738610,-131,-1010,40
1657083738650,-45,-1338,176
1657083738690,-130,-1687,187
1657083738730,-314,-1614,169
1657083738770,-292,-1477,274
1657083738810,-36,-1542,468
1657083738850,233,-1534,474
1657083738890,324,-1272,476
1657083738930,279,-965,459
1657083738970,250,-933,376
1657083739010,418,-956,354
1657083739050,469,-809,354
1657083739090,256,-866,338
1657083739130,43,-873,347
1657083739170,80,-1249,316
1657083739210,272,-1494,241
1657083739250,127,-1355,270
1657083739290,-650,-1098,800
1657083739330,-66,-709,-160
1657083739370,-123,-1212,523
1657083739410,-104,-1385,-16
1657083739450,-227,-1472,62
1657083739490,-275,-1425,271
1657083739530,-306,-1498,306
1657083739570,-381,-1480,204
1657083739610,-429,-1247,60
1657083739650,-284,-1058,34
1657083739690,-205,-1408,174
1657083739730,-186,-1721,188
1657083739770,-246,-1551,233
1657083739810,-175,-1421,328
1657083739850,43,-1482,397
1657083739890,254,-1456,426
1657083739930,291,-1226,484
1657083739970,235,-1135,464
1657083740010,296,-1188,397
1657083740050,394,-1041,338
1657083740090,290,-823,357
1657083740130,171,-728,310
1657083740170,186,-868,275
1657083740210,326,-1127,269
1657083740250,309,-1313,238
1657083740290,32,-1194,281
1657083740330,-164,-1144,168
1657083740370,-92,-1193,112
1657083740410,-44,-1408,122
1657083740450,-158,-1552,192
1657083740490,-379,-1638,191
1657083740530,-510,-1732,189
1657083740570,-458,-1610,86
1657083740610,-336,-1502,69
1657083740650,-248,-1097,-4
1657083740690,-104,-1279,119
1657083740730,8,-1642,295
1657083740770,-135,-1605,247
1657083740810,-245,-1443,251
1657083740850,-129,-1449,479
1657083740890,98,-1514,441
1657083740930,295,-1356,501
1657083740970,274,-1050,514
1657083741010,238,-937,413
1657083741050,334,-997,380
1657083741090,442,-828,349
1657083741130,307,-862,356
1657083741170,166,-894,273
1657083741210,172,-1069,298
1657083741250,245,-1323,305
1657083741290,169,-1370,288
1657083741330,-20,-1253,274
1657083741370,-132,-1276,56
1657083741410,-57,-1388,161
1657083741450,-110,-1551,138
1657083741490,-356,-1523,65
1657083741530,-429,-1488,119
1657083741570,-323,-1512,180
1657083741610,-295,-1428,96
1657083741650,-272,-1358,123
1657083741690,-256,-985,54
1657083741730,-109,-1208,153
1657083741770,-47,-1666,282
1657083741810,-185,-1710,230
1657083741850,-257,-1559,284
1657083741890,-42,-1608,494
1657083741930,152,-1632,444
1657083741970,307,-1426,483
1657083742010,270,-1103,480
1657083742050,244,-1007,399
1657083742090,400,-982,353
1657083742130,520,-703,298
1657083742170,382,-690,289
1657083742210,181,-736,239
1657083742250,207,-1038,294
1657083742290,341,-1475,350
1657083742330,176,-1679,330
1657083742370,-131,-1484,292
1657083742410,-159,-1303,107
1657083742450,-175,-1473,146
1657083742490,-182,-1528,120
1657083742530,-304,-1458,128
1657083742570,-380,-1397,140
1657083742610,-327,-1506,164
1657083742650,-368,-1484,55
1657083742690,-375,-1338,61
1657083742730,-257,-1070,50
1657083742770,-67,-1439,204
1657083742810,-20,-1768,321
1657083742850,-153,-1667,305
1657083742890,-158,-1510,361
1657083742930,-43,-1498,420
1657083742970,249,-1472,441
1657083743010,292,-1212,490
1657083743050,268,-968,455
1657083743090,261,-963,366
1657083743130,452,-1011,358
1657083743170,458,-773,339
1657083743210,218,-815,285
1657083743250,81,-928,232
1657083743290,207,-1198,227
1657083743330,351,-1393,317
1657083743370,166,-1406,324
1657083743410,-107,-1303,292
1657083743450,-52,-1242,204
1657083743490,-107,-1519,134
1657083743530,-198,-1543,172
1657083743570,-371,-1501,169
1657083743610,-423,-1438,236
1657083743650,-310,-1503,241
1657083743690,-358,-1416,107
1657083743730,-343,-1153,63
1657083743770,-215,-975,75
1657083743810,-65,-1408,231
1657083743850,-109,-1833,283
1657083743890,-286,-1801,269
1657083743930,-195,-1624,407
1657083743970,-38,-1627,439
1657083744010,263,-1587,451
1657083744050,377,-1284,547
1657083744090,346,-1075,464
1657083744130,357,-1101,340
1657083744170,431,-897,306
1657083744210,333,-768,357
1657083744250,199,-712,341
1657083744290,191,-940,341
1657083744330,382,-1252,342
1657083744370,305,-1425,336
1657083744410,-5,-1328,329
1657083744450,-565,-1318,619
1657083744490,-16,-1120,170
1657083744530,-100,-1603,266
1657083744570,-232,-1612,128
1657083744610,-378,-1517,143
1657083744650,-422,-1609,237
1657083744690,-421,-1503,146
1657083744730,-420,-1322,70
1657083744770,-323,-886,-16
1657083744810,-156,-1082,125
1657083744850,-96,-1659,276
1657083744890,-288,-1850,210
1657083744930,-374,-1596,212
1657083744970,-107,-1518,343
1657083745010,99,-1583,459
1657083745050,369,-1435,478
1657083745090,354,-1099,496
1657083745130,311,-1074,342
1657083745170,379,-1074,305
1657083745210,404,-849,333
1657083745250,276,-854,405
1657083745290,133,-843,372
1657083745330,143,-1067,358
1657083745370,269,-1271,277
1657083745410,151,-1249,254
1657083745450,-95,-1097,160
1657083745490,-177,-1222,-270
1657083745530,-75,-1334,482
1657083745570,-53,-1513,132
1657083745610,-293,-1616,56
1657083745650,-385,-1558,186
1657083745690,-419,-1613,289
1657083745730,-440,-1526,182
1657083745770,-341,-1233,126
1657083745810,-227,-941,129
1657083745850,-125,-1253,280
1657083745890,-137,-1591,265
1657083745930,-269,-1525,212
1657083745970,-210,-1420,299
1657083746010,25,-1499,491
1657083746050,194,-1484,468
1657083746090,272,-1266,499
1657083746130,279,-1115,482
1657083746170,375,-1186,458
1657083746210,488,-1078,389
1657083746250,293,-1044,343
1657083746290,192,-879,339
1657083746330,189,-872,385
1657083746370,347,-991,323
1657083746410,330,-1019,311
1657083746450,71,-1013,223
1657083746490,-175,-439,24
1657083746530,108,-1193,254
1657083746570,5,-1632,191
1657083746610,-241,-1844,184
1657083746650,-555,-1727,204
1657083746690,-742,-1669,267
1657083746730,-543,-1473,120
1657083746770,-300,-1294,103
1657083746810,-169,-961,15
1657083746850,-91,-1252,176
1657083746890,-63,-1691,245
1657083746930,-223,-1700,125
1657083746970,-264,-1566,159
1657083747010,-127,-1576,425
1657083747050,179,-1514,476
1657083747090,301,-1329,521
1657083747130,294,-1124,482
1657083747170,255,-1119,414
1657083747210,386,-1122,396
1657083747250,445,-915,369
1657083747290,352,-753,335
1657083747330,165,-733,317
1657083747370,234,-961,269
1657083747410,420,-1215,245
1657083747450,242,-1403,222
1657083747490,-27,-1466,217
1657083747530,-51,-1418,226
1657083747570,-253,-1764,159
1657083747610,-441,-1714,147
1657083747650,-615,-1550,178
1657083747690,-512,-1498,258
1657083747730,-306,-1428,182
1657083747770,-259,-1393,45
1657083747810,-324,-1020,-50
1657083747850,-252,-1169,105
1657083747890,-208,-1659,201
1657083747930,-261,-1746,192
1657083747970,-240,-1576,287
1657083748010,-28,-1518,470
1657083748050,116,-1575,416
1657083748090,309,-1426,497
1657083748130,298,-1178,482
1657083748170,288,-1066,458
1657083748210,424,-1032,435
1657083748250,459,-757,449
1657083748290,310,-738,445
1657083748330,178,-623,353
1657083748370,342,-751,433
1657083748410,554,-1028,519
1657083748450,376,-1209,586
1657083748490,49,-1249,542
1657083748530,-28,-1362,379
1657083748570,-45,-1502,347
1657083748610,-115,-1617,321
1657083748650,-289,-1569,259
1657083748690,-369,-1513,275
1657083748730,-359,-1602,269
1657083748770,-311,-1567,218
1657083748810,-304,-1267,129
1657083748850,-234,-1025,129
1657083748890,-91,-1359,351
1657083748930,-24,-1606,397
1657083748970,-121,-1474,305
1657083749010,-51,-1302,347
1657083749050,37,-1331,436
1657083749090,225,-1278,488
1657083749130,228,-1087,485
1657083749170,192,-1010,436
1657083749210,300,-1086,416
1657083749250,430,-1049,398
1657083749290,320,-835,399
1657083749330,144,-759,323
1657083749370,159,-875,311
1657083749410,294,-1174,328
1657083749450,298,-1287,323
1657083749490,0,-1165,297
1657083749530,-135,-1086,194
1657083749570,22,-984,105
1657083749610,-15,-1424,136
1657083749650,-181,-1587,145
1657083749690,-381,-1570,145
1657083749730,-510,-1601,238
1657083749770,-496,-1541,143
1657083749810,-330,-1468,137
1657083749850,-246,-1086,33
1657083749890,-142,-1198,120
1657083749930,-118,-1531,241
1657083749970,-193,-1473,268
1657083750010,-207,-1307,372
1657083750050,-88,-1323,460
1657083750090,165,-1279,448
1657083750130,260,-1126,481
1657083750170,238,-1001,373
1657083750210,220,-1061,315
1657083750250,310,-1151,324
1657083750290,271,-952,303
1657083750330,135,-838,325
1657083750370,137,-831,327
1657083750410,295,-978,449
1657083750450,323,-1182,416
1657083750490,58,-1142,300
1657083750530,-136,-1001,149
1657083750570,-128,-1035,-133
1657083750610,-44,-1185,144
1657083750650,-115,-1403,106
1657083750690,-237,-1522,57
1657083750730,-386,-1668,109
1657083750770,-468,-1647,86
1657083750810,-418,-1560,81
1657083750850,-256,-1152,20
1657083750890,-131,-1120,116
1657083750930,-33,-1410,311
1657083750970,-65,-1459,282
1657083751010,-201,-1255,169
1657083751050,-129,-1107,210
1657083751090,-43,-1178,304
1657083751130,152,-1143,428
1657083751170,194,-991,439
1657083751210,223,-1061,434
1657083751250,295,-1211,428
1657083751290,266,-1000,402
1657083751330,137,-981,450
1657083751370,121,-815,359
1657083751410,111,-972,254
1657083751450,234,-1215,154
1657083751490,215,-1182,87
1657083751530,-62,-939,71
1657083751570,-144,-828,17
1657083751610,109,-762,55
1657083751650,37,-1187,220
1657083751690,-100,-1404,205
1657083751730,-297,-1595,171
1657083751770,-430,-1751,254
1657083751810,-501,-1613,136
1657083751850,-466,-1463,117
1657083751890,-285,-1030,69
1657083751930,-166,-1113,149
1657083751970,-99,-1392,218
1657083752010,-195,-1386,148
1657083752050,-236,-1198,166
1657083752090,-68,-1093,281
1657083752130,27,-1187,346
1657083752170,173,-1151,399
1657083752210,183,-1043,396
1657083752250,193,-1210,373
1657083752290,301,-1346,360
1657083752330,233,-1105,368
1657083752370,151,-946,434
1657083752410,103,-728,386
1657083752450,218,-908,330
1657083752490,350,-1096,184
1657083752530,135,-1036,84
1657083752570,-77,-867,12
1657083752610,-117,-904,-16
1657083752650,19,-1096,183
1657083752690,-14,-1288,147
1657083752730,-194,-1470,177
1657083752770,-384,-1722,230
1657083752810,-522,-1732,96
1657083752850,-510,-1634,91
1657083752890,-362,-1171,38
1657083752930,-246,-1059,10
1657083752970,-160,-1384,113
1657083753010,-169,-1534,180
1657083753050,-257,-1339,198
1657083753090,-186,-1245,298
1657083753130,12,-1267,358
1657083753170,166,-1248,410
1657083753210,204,-1133,429
1657083753250,186,-1107,409
1657083753290,317,-1219,411
1657083753330,433,-1016,368
1657083753370,248,-844,353
1657083753410,57,-747,291
1657083753450,209,-999,293
1657083753490,345,-1237,261
1657083753530,121,-1241,168
1657083753570,-136,-1053,60
1657083753610,-179,-969,-146
1657083753650,-81,-1137,217
1657083753690,-18,-1212,171
1657083753730,-177,-1410,152
1657083753770,-338,-1517,188
1657083753810,-465,-1667,245
1657083753850,-511,-1592,89
1657083753890,-427,-1389,-16
1657083753930,-240,-1060,-28
1657083753970,-107,-1398,197
1657083754010,-26,-1699,272
1657083754050,-180,-1503,237
1657083754090,-151,-1233,284
1657083754130,-98,-1300,346
1657083754170,166,-1310,401
1657083754210,231,-1104,437
1657083754250,212,-926,388
1657083754290,302,-936,330
1657083754330,495,-942,338
1657083754370,466,-838,351
1657083754410,240,-916,287
1657083754450,60,-905,339
1657083754490,93,-1269,304
1657083754530,196,-1542,201
1657083754570,7,-1400,129
1657083754610,-235,-1205,124
1657083754650,-241,-1167,185
1657083754690,-126,-1229,97
1657083754730,-210,-1240,165
1657083754770,-281,-1244,196
1657083754810,-284,-1335,251
1657083754850,-322,-1471,198
1657083754890,-403,-1462,118
1657083754930,-440,-1119,-1
1657083754970,-260,-1177,47
1657083755010,-108,-1658,237
1657083755050,-109,-1787,260
1657083755090,-209,-1522,280
1657083755130,-145,-1359,421
1657083755170,52,-1350,400
1657083755210,233,-1278,440
1657083755250,312,-1045,458
1657083755290,274,-936,385
1657083755330,355,-961,336
1657083755370,437,-856,314
1657083755410,301,-900,329
1657083755450,144,-877,246
1657083755490,126,-1068,310
1657083755530,202,-1396,318
1657083755570,108,-1473,273
1657083755610,-104,-1196,230
1657083755650,-262,-1083,139
1657083755690,-115,-1125,154
1657083755730,-32,-1278,203
1657083755770,-182,-1325,212
1657083755810,-306,-1378,244
1657083755850,-377,-1490,290
1657083755890,-427,-1497,118
1657083755930,-432,-1459,62
1657083755970,-315,-1019,-41
1657083756010,-204,-1249,78
1657083756050,-107,-1702,181
1657083756090,-211,-1626,221
1657083756130,-247,-1366,288
1657083756170,-93,-1339,418
1657083756210,114,-1359,383
1657083756250,276,-1207,456
1657083756290,261,-1017,423
1657083756330,244,-1118,348
1657083756370,339,-1095,333
1657083756410,263,-904,346
1657083756450,246,-866,390
1657083756490,176,-736,387
1657083756530,197,-1036,388
1657083756570,249,-1329,267
1657083756610,54,-1258,164
1657083756650,-119,-1065,95
1657083756690,-116,-1069,-106
1657083756730,-42,-1237,265
1657083756770,-67,-1374,226
1657083756810,-278,-1462,213
1657083756850,-413,-1595,229
1657083756890,-521,-1653,111
1657083756930,-495,-1556,-2
1657083756970,-338,-1174,-51
1657083757010,-182,-1143,11
1657083757050,-100,-1529,186
1657083757090,-128,-1631,226
1657083757130,-212,-1445,233
1657083757170,-81,-1246,320
1657083757210,-23,-1281,403
1657083757250,191,-1210,463
1657083757290,253,-1005,459
1657083757330,229,-926,386
1657083757370,270,-1014,369
1657083757410,396,-1046,378
1657083757450,304,-963,405
1657083757490,80,-832,328
1657083757530,-53,-892,322
1657083757570,149,-1232,268
1657083757610,251,-1331,234
1657083757650,-50,-1147,150
1657083757690,-338,-1632,-437
1657083757730,-91,-923,134
1657083757770,-39,-1150,182
1657083757810,-95,-1322,103
1657083757850,-227,-1398,165
1657083757890,-299,-1595,208
1657083757930,-416,-1571,92
1657083757970,-474,-1495,70
1657083758010,-360,-996,-24
1657083758050,-232,-1140,70
1657083758090,-138,-1541,152
1657083758130,-210,-1572,146
1657083758170,-269,-1284,196
1657083758210,-182,-1182,306
1657083758250,27,-1249,356
1657083758290,188,-1237,418
1657083758330,205,-1123,438
1657083758370,242,-1187,406
1657083758410,371,-1232,390
1657083758450,360,-942,366
1657083758490,145,-808,314
1657083758530,89,-793,302
1657083758570,264,-1037,322
1657083758610,295,-1255,201
1657083758650,12,-1168,79
1657083758690,-154,-954,54
1657083758730,-120,-896,-37
1657083758770,-77,-1112,91
1657083758810,-90,-1304,115
1657083758850,-261,-1504,121
1657083758890,-436,-1666,137
1657083758930,-568,-1622,-3
1657083758970,-505,-1568,-63
1657083759010,-282,-1105,-98
1657083759050,-103,-1273,103
1657083759090,-44,-1616,341
1657083759130,-146,-1490,257
1657083759170,-248,-1239,193
1657083759210,-176,-1167,286
1657083759250,54,-1213,372
1657083759290,193,-1189,418
1657083759330,231,-1009,409
1657083759370,228,-1007,369
1657083759410,391,-1040,355
1657083759450,440,-864,348
1657083759490,224,-897,318
1657083759530,55,-888,318
1657083759570,84,-1185,291
1657083759610,185,-1328,191
1657083759650,42,-1211,141
1657083759690,-118,-998,109
1657083759730,-41,-895,84
1657083759770,-88,-1171,80
1657083759810,-166,-1372,105
1657083759850,-319,-1385,117
1657083759890,-420,-1474,174
1657083759930,-346,-1521,169
1657083759970,-342,-1438,110
1657083760010,-315,-1116,88
1657083760050,-244,-971,83
1657083760090,-165,-1353,158
1657083760130,-156,-1645,166
1657083760170,-292,-1467,142
1657083760210,-256,-1247,227
1657083760250,-49,-1230,320
1657083760290,157,-1231,388
1657083760330,245,-1090,403
1657083760370,239,-1049,360
1657083760410,320,-1134,352
1657083760450,405,-1029,350
1657083760490,212,-939,356
1657083760530,39,-792,289
1657083760570,22,-935,220
1657083760610,250,-1201,181
1657083760650,268,-1258,191
1657083760690,-26,-1081,138
1657083760730,-226,-931,112
1657083760770,-5,-834,128
1657083760810,-25,-1126,158
1657083760850,-127,-1324,229
1657083760890,-289,-1492,225
1657083760930,-407,-1705,307
1657083760970,-477,-1620,135
1657083761010,-483,-1462,76
1657083761050,-290,-968,19
1657083761090,-145,-1064,147
1657083761130,-69,-1391,250
1657083761170,-178,-1444,129
1657083761210,-292,-1260,70
1657083761250,-195,-1183,197
1657083761290,20,-1219,329
1657083761330,219,-1193,419
1657083761370,246,-1029,443
1657083761410,229,-1173,430
1657083761450,374,-1380,601
1657083761490,315,-1070,544
1657083761530,305,-898,723
1657083761570,275,-656,576
1657083761610,403,-782,619
1657083761650,465,-805,464
1657083761690,295,-760,367
1657083761730,167,-716,309
1657083761770,204,-871,260
1657083761810,397,-1149,408
1657083761850,356,-1354,628
1657083761890,73,-1463,798
1657083761930,-77,-1761,951
1657083761970,-238,-1728,854
1657083762010,-486,-1700,543
1657083762050,-344,-1381,438
1657083762090,-8,-964,424
1657083762130,162,-1188,887
1657083762170,172,-1547,1068
1657083762210,59,-1588,1210
1657083762250,226,-1371,1359
1657083762290,577,-1329,1463
1657083762330,701,-1208,1404
1657083762370,678,-896,1337
1657083762410,662,-749,1165
1657083762450,725,-595,829
1657083762490,730,-296,447
1657083762530,605,-103,253
1657083762570,546,-234,303
1657083762610,459,-530,575
1657083762650,646,-929,912
1657083762690,715,-1301,1243
1657083762730,437,-1286,1317
1657083762770,222,-1212,1203
1657083762810,192,-1318,1091
1657083762850,63,-1410,1089
1657083762890,-95,-1308,962
1657083762930,-115,-1169,889
1657083762970,44,-1088,873
1657083763010,34,-1052,879
1657083763050,-122,-1073,904
1657083763090,-348,-916,662
1657083763130,-208,-904,688
1657083763170,-24,-1163,940
1657083763210,60,-1473,1106
1657083763250,123,-1418,1111
1657083763290,56,-1139,1196
1657083763330,437,-1048,1170
1657083763370,572,-890,1098
1657083763410,546,-682,914
1657083763450,457,-653,795
1657083763490,516,-730,849
1657083763530,496,-632,765
1657083763570,411,-572,796
1657083763610,349,-443,739
1657083763650,385,-600,744
1657083763690,537,-876,767
1657083763730,460,-976,675
1657083763770,246,-861,582
1657083763810,184,-777,578
1657083763850,166,-845,436
1657083763890,345,-1209,1132
1657083763930,187,-1364,1138
1657083763970,-106,-1470,1068
1657083764010,-311,-1433,1064
1657083764050,-343,-1327,903
1657083764090,-331,-1257,765
1657083764130,-252,-835,384
1657083764170,-89,-922,479
1657083764210,-16,-1362,660
1657083764250,-138,-1640,560
1657083764290,-305,-1480,436
1657083764330,-163,-1372,510
1657083764370,124,-1482,610
1657083764410,327,-1529,618
1657083764450,368,-1301,550
1657083764490,329,-1382,451
1657083764530,357,-1374,350
1657083764570,260,-1076,350
1657083764610,181,-969,423
1657083764650,199,-803,413
1657083764690,348,-963,421
1657083764730,385,-977,264
1657083764770,158,-869,190
1657083764810,-18,-738,88
1657083764850,52,-785,48
1657083764890,200,-1137,39
1657083764930,222,-1645,303
1657083764970,-78,-2046,356
1657083765010,-465,-2046,290
1657083765050,-629,-2046,164
1657083765090,-528,-1604,-4
1657083765130,-338,-1078,-89
1657083765170,-135,-996,69
1657083765210,-347,-1501,101
1657083765250,-750,-1974,-166
1657083765290,-376,-1922,203
1657083765330,109,-1940,666
1657083765370,234,-1945,733
1657083765410,269,-1854,615
1657083765450,316,-1527,641
1657083765490,353,-1259,485
1657083765530,451,-1087,356
1657083765570,571,-793,260
1657083765610,531,-618,276
1657083765650,264,-629,310
1657083765690,101,-889,414
1657083765730,177,-1377,316
1657083765770,160,-1557,187
1657083765810,-91,-1381,206
1657083765850,-227,-1246,229
1657083765890,-133,-1204,150
1657083765930,-167,-1443,177
1657083765970,-257,-1505,96
1657083766010,-313,-1515,-53
1657083766050,-234,-1607,-11
1657083766090,-307,-1537,-26
1657083766130,-389,-1322,5
1657083766170,-375,-926,-73
1657083766210,-211,-1180,70
1657083766250,-191,-1656,247
1657083766290,-314,-1692,196
1657083766330,-326,-1486,223
1657083766370,-82,-1420,424
1657083766410,26,-1475,393
1657083766450,290,-1360,524
1657083766490,319,-1145,500
1657083766530,320,-1097,413
1657083766570,444,-998,451
1657083766610,438,-678,438
1657083766650,307,-816,470
1657083766690,128,-891,364
1657083766730,300,-1205,464
1657083766770,507,-1165,515
1657083766810,263,-982,599
1657083766850,9,-854,500
1657083766890,57,-901,351
1657083766930,199,-1216,404
1657083766970,225,-1439,585
1657083767010,-46,-1607,547
1657083767050,-239,-1605,674
1657083767090,-396,-1609,745
1657083767130,-443,-1435,505
1657083767170,-351,-1079,394
1657083767210,-136,-1001,405
1657083767250,118,-1223,706
1657083767290,158,-1424,771
1657083767330,1,-1393,702
1657083767370,173,-1244,719
1657083767410,265,-1241,1011
1657083767450,443,-1172,1137
1657083767490,449,-1008,985
1657083767530,409,-993,854
1657083767570,501,-878,661
1657083767610,656,-678,519
1657083767650,611,-528,378
1657083767690,434,-494,451
1657083767730,362,-659,623
1657083767770,517,-1017,744
1657083767810,493,-1278,706
1657083767850,291,-1253,669
1657083767890,194,-1043,684
1657083767930,110,-1448,509
1657083767970,107,-1579,602
1657083768010,-153,-1652,639
1657083768050,-383,-1452,493
1657083768090,-359,-1334,654
1657083768130,-215,-1361,592
1657083768170,-197,-1357,471
1657083768210,-280,-958,272
1657083768250,-107,-1119,424
1657083768290,65,-1619,724
1657083768330,0,-1757,687
1657083768370,-106,-1559,673
1657083768410,-243,-1506,842
1657083768450,360,-1614,822
1657083768490,543,-1310,729
1657083768530,508,-1042,477
1657083768570,464,-886,343
1657083768610,565,-670,299
1657083768650,552,-429,301
1657083768690,404,-630,429
1657083768730,226,-837,461
1657083768770,136,-1395,546
1657083768810,280,-1698,541
1657083768850,95,-1437,550
1657083768890,-194,-1034,463
1657083768930,-166,-1359,-309
1657083768970,142,-1078,689
1657083769010,150,-1241,420
1657083769050,23,-1301,403
1657083769090,-75,-1353,394
1657083769130,-175,-1529,522
1657083769170,-362,-1521,406
1657083769210,-582,-1347,318
1657083769250,-435,-1136,279
1657083769290,-154,-1434,477
1657083769330,-2,-1512,483
1657083769370,-100,-1326,509
1657083769410,-43,-1240,538
1657083769450,156,-1276,610
1657083769490,366,-1271,638
1657083769530,402,-1124,634
1657083769570,287,-1074,553
1657083769610,312,-1073,507
1657083769650,501,-1019,539
1657083769690,443,-729,487
1657083769730,239,-742,401
1657083769770,233,-938,390
1657083769810,332,-1096,456
1657083769850,258,-1085,407
1657083769890,135,-921,413
1657083769930,30,-888,365
1657083769970,66,-947,352
1657083770010,138,-1230,420
1657083770050,23,-1573,443
1657083770090,-261,-1632,364
1657083770130,-459,-1604,446
1657083770170,-447,-1443,428
1657083770210,-258,-1384,463
1657083770250,-194,-923,306
1657083770290,-99,-996,385
1657083770330,-5,-1272,475
1657083770370,-134,-1388,324
1657083770410,-244,-1295,296
1657083770450,-99,-1287,352
1657083770490,70,-1338,464
1657083770530,246,-1300,512
1657083770570,278,-1145,539
1657083770610,302,-1122,490
1657083770650,437,-1176,470
1657083770690,472,-949,382
1657083770730,292,-929,367
1657083770770,117,-888,375
1657083770810,104,-1118,363
1657083770850,283,-1132,266
1657083770890,257,-909,332
1657083770930,27,-751,307
1657083770970,-36,-800,238
1657083771010,87,-1107,177
1657083771050,130,-1383,287
1657083771090,-59,-1592,342
1657083771130,-301,-1650,407
1657083771170,-454,-1626,437
1657083771210,-529,-1509,326
1657083771250,-495,-1320,225
1657083771290,-268,-1126,159
1657083771330,-102,-1448,316
1657083771370,-55,-1538,367
1657083771410,-144,-1394,363
1657083771450,-89,-1316,376
1657083771490,42,-1367,436
1657083771530,241,-1309,494
1657083771570,274,-1171,518
1657083771610,220,-1145,444
1657083771650,272,-1235,428
1657083771690,422,-1190,502
1657083771730,416,-1001,663
1657083771770,259,-887,465
1657083771810,218,-599,379
1657083771850,501,-642,534
1657083771890,519,-903,446
1657083771930,346,-1095,450
1657083771970,186,-1183,205
1657083772010,1,-1421,384
1657083772050,-50,-1579,520
1657083772090,-257,-1725,492
1657083772130,-449,-1570,301
1657083772170,-340,-1494,363
1657083772210,-260,-1372,296
1657083772250,-244,-1363,219
1657083772290,-232,-1125,137
1657083772330,-122,-1343,350
1657083772370,-113,-1663,414
1657083772410,-178,-1509,371
1657083772450,-184,-1271,418
1657083772490,9,-1324,518
1657083772530,306,-1353,545
1657083772570,439,-1187,649
1657083772610,328,-1010,507
1657083772650,288,-1028,401
1657083772690,417,-1100,456
1657083772730,343,-915,445
1657083772770,209,-827,373
1657083772810,168,-850,313
1657083772850,397,-1025,337
1657083772890,448,-1187,371
1657083772930,214,-1082,416
1657083772970,-40,-986,369
1657083773010,-30,-1008,220
1657083773050,13,-1338,206
1657083773090,-50,-1559,302
1657083773130,-285,-1656,217
1657083773170,-427,-1659,314
1657083773210,-448,-1583,298
1657083773250,-420,-1467,290
1657083773290,-306,-1110,165
1657083773330,-210,-1097,124
1657083773370,-151,-1446,237
1657083773410,-155,-1726,240
1657083773450,-212,-1626,298
1657083773490,-80,-1414,480
1657083773530,55,-1463,578
1657083773570,258,-1416,625
1657083773610,336,-1106,535
1657083773650,267,-881,383
1657083773690,284,-810,363
1657083773730,475,-828,402
1657083773770,569,-674,441
1657083773810,292,-706,412
1657083773850,31,-916,427
1657083773890,115,-1327,389
1657083773930,259,-1649,299
1657083773970,59,-1483,291
1657083774010,-221,-1230,171
1657083774050,-252,-1062,146
1657083774090,-132,-1201,85
1657083774130,-136,-1320,187
1657083774170,-214,-1360,144
1657083774210,-266,-1358,274
1657083774250,-288,-1399,293
1657083774290,-368,-1533,221
1657083774330,-463,-1161,1
1657083774370,-338,-1229,129
1657083774410,-157,-1599,351
1657083774450,-135,-1548,372
1657083774490,-163,-1292,392
1657083774530,-60,-1185,455
1657083774570,140,-1178,448
1657083774610,253,-1043,454
1657083774650,233,-976,379
1657083774690,239,-1089,341
1657083774730,310,-1215,343
1657083774770,262,-1044,320
1657083774810,196,-978,430
1657083774850,161,-862,389
1657083774890,251,-1007,445
1657083774930,312,-1111,368
1657083774970,208,-1037,303
1657083775010,61,-901,236
1657083775050,-3,-1056,108
1657083775090,68,-1226,194
1657083775130,79,-1484,297
1657083775170,-111,-1595,393
1657083775210,-359,-1639,448
1657083775250,-478,-1614,402
1657083775290,-468,-1555,189
1657083775330,-402,-1278,15
1657083775370,-232,-1124,37
1657083775410,-106,-1454,257
1657083775450,-82,-1557,308
1657083775490,-184,-1410,336
1657083775530,-108,-1371,390
1657083775570,83,-1393,469
1657083775610,252,-1349,496
1657083775650,278,-1117,485
1657083775690,232,-1012,424
1657083775730,285,-1062,392
1657083775770,398,-1065,391
1657083775810,345,-913,408
1657083775850,145,-849,335
1657083775890,45,-903,346
1657083775930,182,-1189,336
1657083775970,265,-1253,249
1657083776010,115,-1106,241
1657083776050,-74,-947,260
1657083776090,-59,-941,56
1657083776130,1,-1163,197
1657083776170,74,-1425,377
1657083776210,-58,-1555,464
1657083776250,-205,-1592,483
1657083776290,-297,-1628,394
1657083776330,-447,-1474,193
1657083776370,-532,-1159,10
1657083776410,-298,-1108,-1
1657083776450,-102,-1480,196
1657083776490,-182,-1719,330
1657083776530,-292,-1606,382
1657083776570,-159,-1502,430
1657083776610,137,-1493,519
1657083776650,326,-1443,522
1657083776690,384,-1180,536
1657083776730,288,-991,452
1657083776770,270,-1123,367
1657083776810,378,-1136,375
1657083776850,287,-944,434
1657083776890,161,-822,432
1657083776930,26,-842,357
1657083776970,152,-1261,212
1657083777010,275,-1333,64
1657083777050,92,-1115,144
1657083777090,-106,-880,169
1657083777130,-134,-939,91
1657083777170,14,-1120,196
1657083777210,28,-1243,257
1657083777250,-140,-1443,330
1657083777290,-261,-1718,432
1657083777330,-456,-1800,344
1657083777370,-585,-1630,148
1657083777410,-508,-1286,-12
1657083777450,-250,-1091,-13
1657083777490,-61,-1414,190
1657083777530,-72,-1528,295
1657083777570,-192,-1380,229
1657083777610,-196,-1282,252
1657083777650,-52,-1318,433
1657083777690,194,-1317,489
1657083777730,278,-1116,539
1657083777770,232,-882,489
1657083777810,189,-931,411
1657083777850,367,-1179,486
1657083777890,402,-1011,457
1657083777930,168,-942,473
1657083777970,35,-820,379
1657083778010,201,-1051,255
1657083778050,413,-1245,168
1657083778090,270,-1160,224
1657083778130,-14,-919,242
1657083778170,-147,-1004,42
1657083778210,-50,-1137,111
1657083778250,12,-1356,237
1657083778290,-91,-1489,285
1657083778330,-245,-1725,364
1657083778370,-414,-1743,393
1657083778410,-699,-1745,199
1657083778450,-711,-1292,-117
1657083778490,-241,-1269,50
1657083778530,-32,-1571,362
1657083778570,-203,-1572,481
1657083778610,-286,-1419,541
1657083778650,-13,-1302,586
1657083778690,165,-1405,624
1657083778730,374,-1299,626
1657083778770,380,-1022,534
1657083778810,307,-1058,418
1657083778850,372,-1177,415
1657083778890,338,-1018,374
1657083778930,272,-1008,505
1657083778970,204,-908,614
1657083779010,304,-1113,737
1657083779050,406,-1081,409
1657083779090,323,-919,481
1657083779130,191,-646,390
1657083779170,116,-952,417
1657083779210,194,-935,325
1657083779250,311,-1285,501
1657083779290,144,-1687,723
1657083779330,-307,-1713,640
1657083779370,-581,-1678,730
1657083779410,-662,-1589,480
1657083779450,-393,-1322,387
1657083779490,-187,-1035,258
1657083779530,-50,-1278,423
1657083779570,-22,-1578,611
1657083779610,-131,-1637,623
1657083779650,-93,-1507,619
1657083779690,174,-1477,682
1657083779730,256,-1456,707
1657083779770,399,-1192,705
1657083779810,382,-931,558
1657083779850,434,-841,479
1657083779890,590,-785,448
1657083779930,609,-595,364
1657083779970,484,-730,454
1657083780010,193,-795,443
1657083780050,141,-1314,537
1657083780090,363,-1562,451
1657083780130,273,-1388,537
1657083780170,-49,-1103,565
1657083780210,-105,-1058,379
1657083780250,-25,-1217,298
1657083780290,-42,-1369,403
1657083780330,-158,-1360,409
1657083780370,-247,-1383,460
1657083780410,-202,-1454,576
1657083780450,-334,-1573,448
1657083780490,-609,-1548,304
1657083780530,-626,-857,-37
