timestamp,accel_X,accel_Y,accel_Z
1657082172436,72,-963,-324
1657082172476,20,-989,-243
1657082172516,-61,-1026,-202
1657082172556,-52,-1013,-194
1657082172596,-2,-997,-217
1657082172636,-8,-998,-228
1657082172676,-39,-1013,-194
1657082172716,-32,-1004,-215
1657082172756,-9,-1010,-216
1657082172796,0,-983,-211
1657082172836,-15,-1011,-217
1657082172876,-11,-1007,-212
1657082172916,-22,-1002,-214
1657082172956,-7,-1004,-212
1657082172996,-8,-1001,-217
1657082173036,-23,-1006,-233
1657082173076,-16,-998,-217
1657082173116,-21,-1004,-217
1657082173156,-15,-999,-216
1657082173196,-22,-999,-211
1657082173236,-17,-999,-219
1657082173276,-12,-1006,-214
1657082173316,-14,-1008,-217
1657082173356,-8,-1007,-221
1657082173396,-9,-1000,-213
1657082173436,-11,-999,-225
1657082173476,-15,-1000,-218
1657082173516,-13,-1004,-206
1657082173556,-5,-1004,-227
1657082173596,0,-1005,-220
1657082173636,-9,-1002,-225
1657082173676,3,-1003,-208
1657082173716,2,-1009,-230
1657082173756,11,-1001,-220
1657082173796,0,-1001,-227
1657082173836,-3,-1000,-219
1657082173876,9,-1000,-226
1657082173916,7,-1002,-222
1657082173956,9,-996,-220
1657082173996,3,-1007,-226
1657082174036,19,-996,-228
1657082174076,13,-1009,-236
1657082174116,-6,-1005,-219
1657082174156,6,-1003,-232
1657082174196,13,-999,-231
1657082174236,13,-998,-224
1657082174276,12,-998,-228
1657082174316,20,-1007,-233
1657082174356,15,-989,-229
1657082174396,16,-1005,-237
1657082174436,21,-996,-223
1657082174476,15,-998,-230
1657082174516,11,-1008,-239
1657082174556,16,-996,-227
1657082174596,18,-1000,-240
1657082174636,15,-996,-237
1657082174676,17,-995,-231
1657082174716,20,-1003,-230
1657082174756,18,-991,-231
1657082174796,20,-995,-232
1657082174836,21,-997,-235
1657082174876,19,-992,-235
1657082174916,16,-999,-232
1657082174956,15,-997,-224
1657082174996,15,-1002,-226
1657082175036,22,-994,-236
1657082175076,26,-996,-235
1657082175116,14,-994,-224
1657082175156,9,-997,-227
1657082175196,20,-999,-230
1657082175236,10,-994,-220
1657082175276,20,-1000,-231
1657082175316,21,-999,-229
1657082175356,13,-1007,-232
1657082175396,22,-1000,-231
1657082175436,25,-1002,-228
1657082175476,22,-993,-224
1657082175516,13,-1001,-230
1657082175556,16,-1001,-223
1657082175596,21,-994,-234
1657082175636,22,-998,-228
1657082175676,23,-997,-236
1657082175716,26,-998,-238
1657082175756,31,-997,-237
1657082175796,22,-997,-239
1657082175836,25,-991,-225
1657082175876,28,-1003,-244
1657082175916,20,-988,-226
1657082175956,20,-992,-233
1657082175996,24,-994,-240
1657082176036,24,-996,-227
1657082176076,22,-995,-234
1657082176116,28,-999,-230
1657082176156,23,-1000,-236
1657082176196,26,-994,-233
1657082176236,21,-998,-233
1657082176276,26,-1001,-230
1657082176316,20,-999,-224
1657082176356,30,-996,-231
1657082176396,31,-995,-242
1657082176436,20,-998,-237
1657082176476,20,-993,-228
1657082176516,23,-998,-231
1657082176556,28,-996,-230
1657082176596,23,-995,-244
1657082176636,24,-990,-230
1657082176676,27,-1001,-237
1657082176716,32,-999,-230
1657082176756,26,-998,-231
1657082176796,29,-995,-242
1657082176836,22,-994,-225
1657082176876,25,-1002,-232
1657082176916,26,-998,-240
1657082176956,25,-994,-236
1657082176996,24,-995,-227
1657082177036,21,-991,-230
1657082177076,30,-999,-241
1657082177116,27,-990,-234
1657082177156,21,-1002,-233
1657082177196,27,-998,-222
1657082177236,32,-998,-240
1657082177276,24,-988,-224
1657082177316,29,-1001,-238
1657082177356,27,-997,-241
1657082177396,19,-998,-231
1657082177436,27,-999,-238
1657082177476,25,-990,-225
1657082177516,24,-1004,-246
1657082177556,19,-999,-237
1657082177596,20,-997,-234
1657082177636,27,-999,-230
1657082177676,22,-995,-234
1657082177716,22,-994,-242
1657082177756,2,-1011,-235
1657082177796,-5,-1041,-219
1657082177836,16,-972,-224
1657082177876,12,-1010,-224
1657082177916,24,-998,-242
1657082177956,38,-980,-212
1657082177996,43,-996,-243
1657082178036,22,-1007,-239
1657082178076,43,-990,-222
1657082178116,52,-998,-235
1657082178156,48,-992,-253
1657082178196,43,-993,-238
1657082178236,40,-996,-220
1657082178276,-29,-986,-201
1657082178316,58,-1027,-232
1657082178356,52,-994,-265
1657082178396,31,-1003,-230
1657082178436,38,-1003,-235
1657082178476,45,-987,-258
1657082178516,67,-978,-271
1657082178556,56,-992,-243
1657082178596,53,-978,-267
1657082178636,72,-985,-261
1657082178676,43,-1009,-260
1657082178716,45,-979,-256
1657082178756,65,-977,-250
1657082178796,80,-1001,-315
1657082178836,95,-933,-295
1657082178876,-18,-1002,-329
1657082178916,174,-973,-370
1657082178956,176,-998,-358
1657082178996,198,-883,-339
1657082179036,186,-939,-392
1657082179076,202,-910,-402
1657082179116,192,-919,-393
1657082179156,176,-920,-443
1657082179196,169,-920,-395
1657082179236,14,-1102,-578
1657082179276,189,-1223,-662
1657082179316,-320,-1636,-824
1657082179356,100,-1086,-387
1657082179396,-471,-603,-159
1657082179436,-466,-295,-332
1657082179476,-174,-168,-118
1657082179516,45,-74,-303
1657082179556,54,-316,-367
1657082179596,-608,-1529,-597
1657082179636,-965,-1527,-816
1657082179676,-750,-1231,-666
1657082179716,-390,-963,-467
1657082179756,-287,-858,-381
1657082179796,-250,-952,-261
1657082179836,-185,-1124,-176
1657082179876,-100,-1168,-55
1657082179916,-123,-1093,152
1657082179956,-241,-1028,358
1657082179996,-259,-1071,379
1657082180036,-127,-1047,367
1657082180076,-87,-920,330
1657082180116,-147,-866,303
1657082180156,-143,-961,240
1657082180196,-115,-1145,195
1657082180236,-183,-1338,167
1657082180276,-322,-1317,91
1657082180316,-404,-1200,-42
1657082180356,-361,-1072,-150
1657082180396,-200,-1056,-163
1657082180436,-156,-1132,-24
1657082180476,-250,-1154,48
1657082180516,-326,-1203,44
1657082180556,-358,-1191,46
1657082180596,-404,-1127,-11
1657082180636,-351,-1239,14
1657082180676,-194,-1367,266
1657082180716,-225,-1439,427
1657082180756,-232,-1369,447
1657082180796,-273,-1180,319
1657082180836,-245,-1041,248
1657082180876,-151,-957,273
1657082180916,-32,-887,301
1657082180956,47,-776,268
1657082180996,78,-731,252
1657082181036,74,-684,253
1657082181076,4,-724,244
1657082181116,-8,-834,240
1657082181156,2,-1051,237
1657082181196,-23,-1397,223
1657082181236,-120,-1659,150
1657082181276,-259,-1667,16
1657082181316,-371,-1292,-80
1657082181356,-303,-1069,-205
1657082181396,-219,-1088,-5
1657082181436,-118,-1208,20
1657082181476,-183,-1241,108
1657082181516,-270,-1070,131
1657082181556,-282,-929,154
1657082181596,-163,-963,103
1657082181636,64,-906,127
1657082181676,218,-877,170
1657082181716,183,-962,262
1657082181756,73,-1041,245
1657082181796,67,-1050,174
1657082181836,153,-1056,64
1657082181876,213,-1104,47
1657082181916,58,-1134,136
1657082181956,-84,-1086,209
1657082181996,-200,-1054,221
1657082182036,-277,-1036,141
1657082182076,-277,-1006,41
1657082182116,-227,-930,-24
1657082182156,-180,-901,5
1657082182196,-240,-1009,79
1657082182236,-299,-1185,188
1657082182276,-350,-1302,263
1657082182316,-309,-1348,279
1657082182356,-148,-1316,249
1657082182396,-167,-1260,161
1657082182436,-141,-1226,254
1657082182476,-89,-1150,319
1657082182516,-30,-1007,353
1657082182556,-36,-881,346
1657082182596,-12,-882,271
1657082182636,3,-888,238
1657082182676,-19,-872,234
1657082182716,11,-876,224
1657082182756,25,-986,193
1657082182796,48,-1125,105
1657082182836,-23,-1138,38
1657082182876,-73,-1115,79
1657082182916,-111,-1044,176
1657082182956,-170,-1039,126
1657082182996,-197,-1208,113
1657082183036,-240,-1401,169
1657082183076,-381,-1417,133
1657082183116,-513,-1245,87
1657082183156,-471,-1047,6
1657082183196,-283,-982,2
1657082183236,-177,-1011,55
1657082183276,-115,-1011,119
1657082183316,61,-967,196
1657082183356,265,-890,339
1657082183396,142,-956,298
1657082183436,-26,-1081,136
1657082183476,44,-1131,30
1657082183516,181,-1188,6
1657082183556,70,-1225,167
1657082183596,-129,-1178,225
1657082183636,-249,-998,128
1657082183676,-275,-881,24
1657082183716,-210,-906,29
1657082183756,-96,-1019,127
1657082183796,-90,-1075,221
1657082183836,-226,-1168,245
1657082183876,-328,-1107,208
1657082183916,-347,-1086,246
1657082183956,-215,-1107,319
1657082183996,-115,-1105,324
1657082184036,-91,-1027,275
1657082184076,-47,-985,271
1657082184116,-16,-933,283
1657082184156,-19,-907,275
1657082184196,-36,-873,293
1657082184236,-46,-889,255
1657082184276,-44,-1000,143
1657082184316,-21,-1117,94
1657082184356,-15,-1171,86
1657082184396,-82,-1096,154
1657082184436,-203,-925,141
1657082184476,-243,-901,51
1657082184516,-171,-1013,2
1657082184556,-136,-1174,33
1657082184596,-215,-1188,57
1657082184636,-311,-1148,43
1657082184676,-292,-1065,49
1657082184716,-173,-987,51
1657082184756,-91,-944,74
1657082184796,-57,-929,119
1657082184836,-44,-933,159
1657082184876,-44,-966,141
1657082184916,-77,-1001,92
1657082184956,-97,-1050,60
1657082184996,-116,-1068,41
1657082185036,-65,-1022,7
1657082185076,-29,-1067,123
1657082185116,-80,-1082,203
1657082185156,-183,-1040,151
1657082185196,-264,-987,28
1657082185236,-305,-974,-16
1657082185276,-286,-1036,76
1657082185316,-210,-1146,184
1657082185356,-219,-1171,270
1657082185396,-242,-1137,274
1657082185436,-227,-1021,275
1657082185476,-208,-926,253
1657082185516,-79,-941,279
1657082185556,-38,-936,310
1657082185596,-132,-868,322
1657082185636,-98,-928,227
1657082185676,-94,-976,208
1657082185716,-70,-1058,245
1657082185756,-82,-1062,255
1657082185796,-124,-1102,191
1657082185836,-97,-1183,126
1657082185876,-91,-1136,70
1657082185916,-112,-926,61
1657082185956,-101,-855,28
1657082185996,-44,-913,15
1657082186036,-43,-1006,104
1657082186076,-96,-1073,180
1657082186116,-203,-1071,196
1657082186156,-235,-980,186
1657082186196,-125,-901,130
1657082186236,-21,-887,82
1657082186276,-25,-880,163
1657082186316,-41,-914,88
1657082186356,-86,-955,107
1657082186396,-74,-1071,134
1657082186436,-136,-1102,95
1657082186476,-190,-1082,42
1657082186516,-163,-1112,100
1657082186556,-162,-1246,189
1657082186596,-287,-1199,105
1657082186636,-396,-1058,22
1657082186676,-409,-940,14
1657082186716,-253,-1010,38
1657082186756,-187,-1126,167
1657082186796,-198,-1209,182
1657082186836,-243,-1195,135
1657082186876,-318,-1077,194
1657082186916,-315,-1034,396
1657082186956,-208,-1012,514
1657082186996,-58,-854,526
1657082187036,41,-842,456
1657082187076,41,-846,398
1657082187116,26,-903,412
1657082187156,-9,-933,298
1657082187196,-84,-1127,155
1657082187236,-116,-1361,-67
1657082187276,-288,-1395,-99
1657082187316,-348,-1178,40
1657082187356,-167,-1078,107
1657082187396,34,-1044,54
1657082187436,119,-1042,65
1657082187476,136,-1038,103
1657082187516,123,-1014,145
1657082187556,109,-964,140
1657082187596,177,-882,-9
1657082187636,209,-893,-151
1657082187676,201,-1030,-14
1657082187716,294,-1336,13
1657082187756,114,-1063,531
1657082187796,120,-904,637
1657082187836,-149,-1105,627
1657082187876,-257,-1255,506
1657082187916,-221,-1529,482
1657082187956,-305,-1738,428
1657082187996,-527,-1512,162
1657082188036,-700,-1108,-91
1657082188076,-626,-961,-150
1657082188116,-325,-1084,6
1657082188156,-152,-1151,82
1657082188196,-170,-1155,143
1657082188236,-290,-1151,219
1657082188276,-290,-1156,234
1657082188316,-216,-1206,200
1657082188356,-117,-1255,240
1657082188396,-59,-1160,274
1657082188436,0,-1065,280
1657082188476,33,-664,754
1657082188516,-391,-644,1062
1657082188556,-101,-1003,309
1657082188596,-29,-1125,107
1657082188636,-105,-1094,72
1657082188676,-2,-1107,83
1657082188716,88,-1113,238
1657082188756,31,-995,288
1657082188796,-57,-965,46
1657082188836,-48,-984,-210
1657082188876,-51,-1104,-338
1657082188916,-160,-1244,-104
1657082188956,-172,-1218,89
1657082188996,-290,-1125,63
1657082189036,-176,-991,-24
1657082189076,-162,-871,231
1657082189116,-60,-860,133
1657082189156,-40,-857,175
1657082189196,-97,-779,160
1657082189236,-121,-843,72
1657082189276,-29,-1083,187
1657082189316,-66,-1193,286
1657082189356,-190,-1072,228
1657082189396,-235,-1087,95
1657082189436,-160,-1349,44
1657082189476,-224,-1333,-129
1657082189516,-371,-1083,-99
1657082189556,-380,-1003,84
1657082189596,-217,-913,252
1657082189636,-284,-909,261
1657082189676,-336,-990,261
1657082189716,-271,-1018,234
1657082189756,-241,-1038,207
1657082189796,-196,-1072,156
1657082189836,-178,-1107,154
1657082189876,-158,-1100,139
1657082189916,-141,-1083,174
1657082189956,-90,-1159,282
1657082189996,-25,-1165,295
1657082190036,-53,-1143,290
1657082190076,-93,-1128,270
1657082190116,-43,-1086,204
1657082190156,-2,-937,108
1657082190196,30,-874,3
1657082190236,99,-912,-5
1657082190276,147,-926,63
1657082190316,105,-907,136
1657082190356,27,-959,136
1657082190396,2,-1053,70
1657082190436,-57,-1117,74
1657082190476,-112,-1092,81
1657082190516,-174,-1050,78
1657082190556,-246,-1020,128
1657082190596,-235,-1238,163
1657082190636,-294,-1356,219
1657082190676,-457,-1145,149
1657082190716,-489,-1081,25
1657082190756,-369,-1180,-41
1657082190796,-278,-1268,-118
1657082190836,-257,-1268,-206
1657082190876,-222,-1223,-205
1657082190916,-154,-1241,-60
1657082190956,-81,-1330,118
1657082190996,-40,-1390,298
1657082191036,-125,-1336,381
1657082191076,-283,-1129,359
1657082191116,-275,-996,361
1657082191156,-116,-916,386
1657082191196,-3,-890,393
1657082191236,19,-841,326
1657082191276,-93,-862,208
1657082191316,-160,-922,193
1657082191356,-160,-921,212
1657082191396,-78,-950,228
1657082191436,-5,-1083,185
1657082191476,63,-1244,106
1657082191516,88,-1306,25
1657082191556,-5,-1128,8
1657082191596,-89,-1036,-2
1657082191636,-100,-1225,-37
1657082191676,-141,-1320,1
1657082191716,-230,-1243,123
1657082191756,-152,-1119,44
1657082191796,-13,-1065,45
1657082191836,-60,-948,147
1657082191876,-211,-810,58
1657082191916,-197,-822,-124
1657082191956,-169,-812,-169
1657082191996,-122,-878,-13
1657082192036,-100,-1018,221
1657082192076,-164,-1059,465
1657082192116,-301,-1142,417
1657082192156,-107,-1158,116
1657082192196,166,-1197,-71
1657082192236,210,-1168,-124
1657082192276,58,-1083,-26
1657082192316,-124,-922,67
1657082192356,-165,-782,16
1657082192396,-133,-681,41
1657082192436,-126,-786,188
1657082192476,-190,-1142,209
1657082192516,-336,-1420,37
1657082192556,-538,-1541,-1
1657082192596,-634,-1538,23
1657082192636,-363,-1355,208
1657082192676,-235,-1243,386
1657082192716,-106,-1131,429
1657082192756,37,-897,456
1657082192796,122,-828,325
1657082192836,33,-870,277
1657082192876,-40,-916,294
1657082192916,-119,-958,292
1657082192956,-46,-1066,251
1657082192996,-1,-1187,251
1657082193036,-16,-1038,236
1657082193076,-96,-799,235
1657082193116,-72,-796,133
1657082193156,-9,-946,158
1657082193196,14,-1222,327
1657082193236,-58,-1283,575
1657082193276,-251,-1033,643
1657082193316,-338,-943,450
1657082193356,-229,-924,309
1657082193396,-90,-985,459
1657082193436,-88,-954,453
1657082193476,-174,-945,484
1657082193516,-242,-939,435
1657082193556,-249,-1006,294
1657082193596,-142,-1106,129
1657082193636,-199,-1044,240
1657082193676,-231,-1003,402
1657082193716,-259,-1024,485
1657082193756,-309,-1076,453
1657082193796,-349,-1046,394
1657082193836,-359,-1044,442
1657082193876,-318,-1052,586
1657082193916,-214,-1131,793
1657082193956,-190,-1110,1060
1657082193996,-240,-1104,1228
1657082194036,-481,-1280,1016
1657082194076,-397,-1214,961
1657082194116,-201,-967,818
1657082194156,56,-717,585
1657082194196,195,-528,307
1657082194236,239,-451,137
1657082194276,224,-446,95
1657082194316,151,-434,229
1657082194356,56,-479,396
1657082194396,-43,-696,582
1657082194436,-213,-1196,707
1657082194476,-344,-1575,621
1657082194516,-308,-1642,421
1657082194556,-273,-1648,386
1657082194596,-312,-1572,424
1657082194636,-213,-1020,128
1657082194676,-411,-857,448
1657082194716,-254,-924,231
1657082194756,-108,-1033,370
1657082194796,-91,-1034,494
1657082194836,-231,-823,423
1657082194876,-309,-823,324
1657082194916,-242,-930,209
1657082194956,-127,-1002,179
1657082194996,-27,-998,203
1657082195036,1,-953,228
1657082195076,-18,-944,209
1657082195116,-25,-952,149
1657082195156,-11,-994,106
1657082195196,17,-1047,90
1657082195236,0,-1080,110
1657082195276,-41,-1080,181
1657082195316,-88,-1191,225
1657082195356,-166,-1250,204
1657082195396,-257,-1065,126
1657082195436,-263,-895,174
1657082195476,-180,-913,254
1657082195516,-142,-1049,346
1657082195556,-230,-1098,390
1657082195596,-312,-1045,362
1657082195636,-307,-1024,360
1657082195676,-211,-1002,373
1657082195716,-119,-991,345
1657082195756,-54,-949,339
1657082195796,-16,-885,351
1657082195836,-18,-836,358
1657082195876,-18,-913,311
1657082195916,-46,-1009,268
1657082195956,-65,-1115,192
1657082195996,-16,-1251,125
1657082196036,35,-1331,73
1657082196076,-18,-1073,100
1657082196116,-135,-783,124
1657082196156,-108,-849,130
1657082196196,8,-1018,71
1657082196236,-19,-1020,231
1657082196276,-145,-1214,18
1657082196316,-149,-1054,400
1657082196356,-145,-865,255
1657082196396,-155,-781,285
1657082196436,-113,-822,242
1657082196476,-113,-927,221
1657082196516,-163,-1020,260
1657082196556,-214,-1085,209
1657082196596,-241,-1064,123
1657082196636,-218,-1102,76
1657082196676,-153,-1104,74
1657082196716,-131,-1083,100
1657082196756,-107,-1116,191
1657082196796,-114,-1162,247
1657082196836,-155,-1150,160
1657082196876,-147,-1123,91
1657082196916,-113,-1072,127
1657082196956,-54,-1013,144
1657082196996,-6,-964,199
1657082197036,19,-996,320
1657082197076,-78,-1054,349
1657082197116,-258,-1044,318
1657082197156,-304,-997,293
1657082197196,-225,-972,337
1657082197236,-151,-947,318
1657082197276,-105,-900,307
1657082197316,-69,-924,333
1657082197356,-79,-933,352
1657082197396,-98,-1030,340
1657082197436,-98,-1093,302
1657082197476,-82,-1159,295
1657082197516,-94,-1048,206
1657082197556,-97,-938,90
1657082197596,-47,-971,-1
1657082197636,19,-1044,-36
1657082197676,21,-1030,5
1657082197716,-29,-940,47
1657082197756,-3,-1035,261
1657082197796,-82,-1031,169
1657082197836,-93,-998,104
1657082197876,-59,-961,122
1657082197916,-45,-895,159
1657082197956,-46,-914,209
1657082197996,-88,-938,238
1657082198036,-140,-970,237
1657082198076,-179,-999,232
1657082198116,-201,-1035,198
1657082198156,-197,-1113,121
1657082198196,-191,-1203,67
1657082198236,-203,-1185,23
1657082198276,-229,-1108,-46
1657082198316,-201,-1093,-51
1657082198356,-173,-1113,-23
1657082198396,-186,-1126,76
1657082198436,-177,-1170,206
1657082198476,-164,-1208,226
1657082198516,-177,-1206,248
1657082198556,-194,-1154,251
1657082198596,-127,-1113,361
1657082198636,-52,-1043,428
1657082198676,-31,-911,473
1657082198716,-10,-840,445
1657082198756,10,-859,386
1657082198796,25,-900,335
1657082198836,19,-874,331
1657082198876,20,-896,318
1657082198916,156,-1157,332
1657082198956,-28,-905,323
1657082198996,-283,-909,300
1657082199036,-61,-1130,269
1657082199076,25,-1293,196
1657082199116,-67,-1326,-7
1657082199156,-173,-1287,-64
1657082199196,-221,-1242,-53
1657082199236,-252,-1171,20
1657082199276,-301,-1077,85
1657082199316,-296,-1017,108
1657082199356,-249,-996,126
1657082199396,-192,-1055,173
1657082199436,-155,-1169,252
1657082199476,-224,-1091,163
1657082199516,-231,-1029,78
1657082199556,-147,-1084,103
1657082199596,-82,-1281,265
1657082199636,-187,-1361,336
1657082199676,-322,-1345,270
1657082199716,-367,-1290,309
1657082199756,-181,-1338,429
1657082199796,86,-1093,565
1657082199836,196,-743,468
1657082199876,143,-590,283
1657082199916,153,-602,197
1657082199956,175,-759,179
1657082199996,122,-921,143
1657082200036,106,-1215,218
1657082200076,57,-1448,400
1657082200116,-217,-1443,419
1657082200156,-462,-1373,199
1657082200196,-370,-1331,-36
1657082200236,-190,-1254,-71
1657082200276,-123,-1087,2
1657082200316,-165,-923,75
1657082200356,-142,-889,134
1657082200396,-137,-912,163
1657082200436,-171,-929,151
1657082200476,-111,-945,162
1657082200516,-87,-987,241
1657082200556,-83,-982,236
1657082200596,-7,-953,116
1657082200636,94,-970,66
1657082200676,104,-1030,131
1657082200716,-23,-1206,264
1657082200756,-203,-1284,247
1657082200796,-294,-1144,83
1657082200836,-213,-946,54
1657082200876,-147,-914,83
1657082200916,-60,-1036,164
1657082200956,-117,-1128,219
1657082200996,-258,-1148,250
1657082201036,-359,-1059,273
1657082201076,-391,-955,347
1657082201116,-213,-929,368
1657082201156,-53,-896,355
1657082201196,0,-882,313
1657082201236,-33,-936,238
1657082201276,-119,-951,171
1657082201316,-202,-992,141
1657082201356,-239,-1044,169
1657082201396,-194,-1068,197
1657082201436,-137,-1070,166
1657082201476,-69,-1182,169
1657082201516,9,-1198,168
1657082201556,-40,-947,196
1657082201596,-51,-801,196
1657082201636,-22,-944,96
1657082201676,-22,-1098,59
1657082201716,-267,-1241,-93
1657082201756,-88,-846,260
1657082201796,0,-814,131
1657082201836,67,-990,268
1657082201876,12,-1113,263
1657082201916,-147,-1007,203
1657082201956,-164,-988,142
1657082201996,-103,-1057,116
1657082202036,-52,-1131,110
1657082202076,-81,-1176,186
1657082202116,-102,-1089,212
1657082202156,-56,-1074,231
1657082202196,-47,-1116,236
1657082202236,-158,-1166,228
1657082202276,-292,-1113,96
1657082202316,-352,-1022,-40
1657082202356,-258,-919,5
1657082202396,-199,-1072,114
1657082202436,-195,-1194,206
1657082202476,-315,-1265,361
1657082202516,-445,-1174,550
1657082202556,-293,-1070,602
1657082202596,-95,-1168,580
1657082202636,13,-1043,486
1657082202676,78,-960,386
1657082202716,68,-990,343
1657082202756,12,-922,278
1657082202796,-15,-876,412
1657082202836,-36,-760,410
1657082202876,-5,-821,470
1657082202916,45,-870,364
1657082202956,82,-974,314
1657082202996,103,-1055,296
1657082203036,112,-1081,448
1657082203076,-19,-949,515
1657082203116,-123,-926,556
1657082203156,-64,-1115,725
1657082203196,-132,-1081,754
1657082203236,-228,-984,669
1657082203276,-233,-920,616
1657082203316,-174,-895,566
1657082203356,-65,-824,503
1657082203396,-62,-862,507
1657082203436,97,-800,523
1657082203476,354,-783,645
1657082203516,157,-980,616
1657082203556,57,-1068,517
1657082203596,73,-926,406
1657082203636,-70,-862,654
1657082203676,-135,-812,789
1657082203716,-261,-857,858
1657082203756,-342,-810,640
1657082203796,-430,-763,513
1657082203836,-462,-742,694
1657082203876,-415,-878,993
1657082203916,-339,-946,1311
1657082203956,-292,-845,1397
1657082203996,-188,-793,1461
1657082204036,-116,-608,1368
1657082204076,-18,-717,1127
1657082204116,33,-653,694
1657082204156,39,-668,549
1657082204196,47,-666,473
1657082204236,59,-613,390
1657082204276,120,-561,407
1657082204316,155,-509,506
1657082204356,124,-595,616
1657082204396,67,-826,755
1657082204436,-30,-1158,753
1657082204476,-104,-1582,761
1657082204516,-229,-1636,654
1657082204556,-396,-1548,360
1657082204596,-478,-1521,343
1657082204636,-556,-1451,316
1657082204676,-480,-1136,256
1657082204716,-306,-972,230
1657082204756,-187,-879,243
1657082204796,-111,-846,243
1657082204836,-72,-851,232
1657082204876,-108,-927,155
1657082204916,-58,-1053,136
1657082204956,9,-1139,205
1657082204996,-14,-1015,233
1657082205036,-24,-988,200
1657082205076,34,-972,215
1657082205116,10,-987,216
1657082205156,-73,-992,166
1657082205196,-318,-1007,72
1657082205236,-495,-1069,81
1657082205276,-503,-1257,190
1657082205316,-411,-1386,305
1657082205356,-300,-1338,371
1657082205396,-185,-1201,400
1657082205436,-77,-1101,426
1657082205476,6,-1032,415
1657082205516,40,-938,391
1657082205556,20,-888,354
1657082205596,-42,-823,317
1657082205636,-73,-820,362
1657082205676,-71,-838,399
1657082205716,-62,-899,324
1657082205756,-44,-996,240
1657082205796,40,-1208,180
1657082205836,127,-1150,282
1657082205876,-52,-1012,324
1657082205916,-127,-975,78
1657082205956,-131,-1121,56
1657082205996,-225,-1314,126
1657082206036,-310,-1257,113
1657082206076,-323,-1063,-15
1657082206116,-251,-1134,60
1657082206156,-150,-1174,271
1657082206196,-112,-971,276
1657082206236,64,-785,337
1657082206276,233,-853,365
1657082206316,348,-1018,318
1657082206356,260,-1035,291
1657082206396,108,-975,359
1657082206436,54,-1010,360
1657082206476,-24,-1080,310
1657082206516,-101,-1158,240
1657082206556,-232,-1198,217
1657082206596,-282,-1139,96
1657082206636,-237,-1029,-31
1657082206676,-202,-926,-89
1657082206716,-174,-985,129
1657082206756,-104,-1149,365
1657082206796,-162,-1279,536
1657082206836,-233,-1377,509
1657082206876,-198,-1497,341
1657082206916,-343,-1331,423
1657082206956,-221,-1264,601
1657082206996,-11,-1181,601
1657082207036,-52,-1002,583
1657082207076,-23,-984,470
1657082207116,80,-919,317
1657082207156,125,-818,253
1657082207196,120,-719,274
1657082207236,168,-732,293
1657082207276,181,-960,333
1657082207316,151,-1191,364
1657082207356,-19,-1172,361
1657082207396,-211,-1078,354
1657082207436,-268,-1228,342
1657082207476,-183,-1492,296
1657082207516,-197,-1601,260
1657082207556,-295,-1291,233
1657082207596,-323,-1067,160
1657082207636,-291,-1052,70
1657082207676,-162,-1120,-90
1657082207716,-31,-1197,-164
1657082207756,-14,-1083,-46
1657082207796,-86,-955,95
1657082207836,-154,-916,213
1657082207876,-153,-962,265
1657082207916,-125,-978,239
1657082207956,-93,-910,249
1657082207996,-78,-872,269
1657082208036,-187,-836,271
1657082208076,-284,-827,301
1657082208116,-324,-968,407
1657082208156,-255,-1355,190
1657082208196,-316,-1499,212
1657082208236,-464,-1476,320
1657082208276,-339,-1353,422
1657082208316,-114,-1340,457
1657082208356,72,-1175,524
1657082208396,151,-873,494
1657082208436,123,-709,343
1657082208476,102,-748,218
1657082208516,49,-857,183
1657082208556,-40,-995,283
1657082208596,-178,-1128,401
1657082208636,-247,-1166,428
1657082208676,-276,-1083,387
1657082208716,-196,-998,234
1657082208756,-46,-929,28
1657082208796,93,-977,-120
1657082208836,81,-1002,-128
1657082208876,8,-1064,70
1657082208916,-34,-1089,281
1657082208956,-167,-953,340
1657082208996,-290,-1009,176
1657082209036,-324,-1090,74
1657082209076,-260,-1135,90
1657082209116,-194,-1100,230
1657082209156,-173,-1012,266
1657082209196,-137,-985,235
1657082209236,-89,-938,179
1657082209276,-19,-926,195
1657082209316,-2,-1108,272
1657082209356,-144,-1334,129
1657082209396,-572,-1304,21
1657082209436,-843,-1078,125
1657082209476,-702,-1211,63
1657082209516,-336,-1286,336
1657082209556,-177,-1255,395
1657082209596,-257,-943,339
1657082209636,-105,-995,317
1657082209676,5,-952,242
1657082209716,-80,-910,265
1657082209756,-58,-1225,184
1657082209796,-249,-627,409
1657082209836,-122,-725,486
1657082209876,-242,-691,834
1657082209916,-126,-822,566
1657082209956,-84,-1031,600
1657082209996,74,-1366,444
1657082210036,151,-1271,384
1657082210076,73,-800,474
1657082210116,-71,-671,531
1657082210156,-237,-924,630
1657082210196,-939,-1786,445
1657082210236,-935,-2046,-511
1657082210276,-445,-1212,-146
1657082210316,-328,-960,-337
1657082210356,-118,-297,-305
1657082210396,-174,-517,523
1657082210436,898,2,650
1657082210476,-420,-339,639
1657082210516,-453,-757,680
1657082210556,-531,-763,799
1657082210596,-525,-774,890
1657082210636,-433,-926,1023
1657082210676,-365,-504,684
1657082210716,-475,-657,677
1657082210756,-380,-742,853
1657082210796,-298,-562,530
1657082210836,-364,-491,477
1657082210876,99,-390,960
1657082210916,-671,-1198,308
1657082210956,-1027,-1486,942
1657082210996,-89,-965,604
1657082211036,-94,-737,693
1657082211076,-11,-605,811
1657082211116,-144,-609,630
1657082211156,-464,-526,475
1657082211196,-375,-1020,234
1657082211236,-483,-556,536
1657082211276,-151,-415,715
1657082211316,152,-373,775
1657082211356,28,-384,283
1657082211396,217,-1464,1041
1657082211436,-302,-1616,909
1657082211476,-667,-1061,671
1657082211516,-295,-887,183
1657082211556,-198,-873,-77
1657082211596,-198,-950,-221
1657082211636,37,-975,439
1657082211676,-62,-813,5
1657082211716,-620,-1196,144
1657082211756,-478,-1017,55
1657082211796,-204,-1006,65
1657082211836,-486,-791,402
1657082211876,-454,-662,70
1657082211916,-513,-584,193
1657082211956,-451,-776,152
1657082211996,-631,-824,174
1657082212036,-747,-822,109
1657082212076,-606,-826,-69
1657082212116,-409,-948,44
1657082212156,-407,-992,321
1657082212196,-277,-983,315
1657082212236,-307,-908,300
1657082212276,-318,-1108,231
1657082212316,-336,-1115,300
1657082212356,-367,-1041,351
1657082212396,-30,-799,624
1657082212436,0,-712,571
1657082212476,111,-778,376
1657082212516,-88,-960,365
1657082212556,-232,-787,549
1657082212596,-389,-760,549
1657082212636,-341,-805,674
1657082212676,-317,-824,723
1657082212716,-254,-1026,742
1657082212756,-177,-1282,681
1657082212796,-349,-1061,794
1657082212836,409,-265,700
1657082212876,127,-849,418
1657082212916,136,-1031,732
1657082212956,-73,-1131,722
1657082212996,13,-1157,695
1657082213036,5,-841,820
1657082213076,-120,-814,609
1657082213116,-273,-594,589
1657082213156,-410,-609,678
1657082213196,-321,-534,669
1657082213236,-439,-629,586
1657082213276,-299,-914,565
1657082213316,-577,-806,855
1657082213356,-682,-992,830
1657082213396,-804,-982,755
1657082213436,-449,-1033,378
1657082213476,-229,-1073,250
1657082213516,-153,-1135,76
1657082213556,-37,-1031,-305
1657082213596,-286,-848,-22
1657082213636,-544,-702,183
1657082213676,-637,-511,129
1657082213716,-651,-267,210
1657082213756,-726,-28,140
1657082213796,-649,98,245
1657082213836,-742,206,317
1657082213876,-637,128,276
1657082213916,-927,105,465
1657082213956,-961,19,305
1657082213996,-1421,405,141
1657082214036,-1693,118,548
1657082214076,-979,-394,478
1657082214116,-869,-105,154
1657082214156,-1106,-219,78
1657082214196,-1047,-140,60
1657082214236,-1077,-271,309
1657082214276,-933,-134,195
1657082214316,-1020,-153,163
1657082214356,-946,-111,174
1657082214396,-1120,-209,250
1657082214436,-991,-87,114
1657082214476,-971,-48,221
1657082214516,-1048,-67,134
1657082214556,-1079,-29,169
1657082214596,-1114,29,91
1657082214636,-1071,43,83
1657082214676,-1023,117,89
1657082214716,-1008,146,147
1657082214756,-942,226,181
1657082214796,-981,241,259
1657082214836,-979,238,283
1657082214876,-1042,110,306
1657082214916,-1035,67,265
1657082214956,-960,128,225
1657082214996,-860,232,258
1657082215036,-1002,114,240
1657082215076,-1028,-10,264
1657082215116,-911,54,121
1657082215156,-910,58,222
1657082215196,-901,77,238
1657082215236,-963,57,217
1657082215276,-974,57,223
1657082215316,-977,53,245
1657082215356,-1022,31,282
1657082215396,-1102,-28,316
1657082215436,-1118,-82,333
1657082215476,-1068,-54,273
1657082215516,-1006,0,201
1657082215556,-998,-3,162
1657082215596,-1055,-102,173
1657082215636,-1183,-216,205
1657082215676,-1089,-187,158
1657082215716,-917,-84,113
1657082215756,-955,-117,129
1657082215796,-982,-112,97
1657082215836,-1013,-97,124
1657082215876,-1060,-106,192
1657082215916,-914,-62,213
1657082215956,-956,-75,153
1657082215996,-985,-45,136
1657082216036,-1025,-48,138
1657082216076,-1043,-34,136
1657082216116,-1012,-55,175
1657082216156,-1025,-100,202
1657082216196,-1044,-85,205
1657082216236,-1047,-34,216
1657082216276,-1039,10,270
1657082216316,-1060,-51,322
1657082216356,-1068,-142,344
1657082216396,-1033,-125,327
1657082216436,-934,-36,268
1657082216476,-858,18,315
1657082216516,-922,-24,344
1657082216556,-1024,-109,348
1657082216596,-1004,-145,331
1657082216636,-916,-41,219
1657082216676,-904,6,250
1657082216716,-922,1,214
1657082216756,-1045,-37,152
1657082216796,-1049,-29,199
1657082216836,-1010,-27,253
1657082216876,-1034,-59,267
1657082216916,-1083,-102,272
1657082216956,-1065,-41,189
1657082216996,-1059,-29,170
1657082217036,-1110,-147,195
1657082217076,-1153,-236,217
1657082217116,-1106,-255,213
1657082217156,-929,-171,166
1657082217196,-849,-139,161
1657082217236,-913,-185,134
1657082217276,-997,-182,96
1657082217316,-1018,-151,126
1657082217356,-956,-128,158
1657082217396,-962,-120,105
1657082217436,-1004,-115,75
1657082217476,-1010,-87,64
1657082217516,-1005,-47,88
1657082217556,-1025,-42,114
1657082217596,-1051,-77,116
1657082217636,-1086,-84,107
1657082217676,-1091,-52,118
1657082217716,-1040,-13,105
1657082217756,-995,51,125
1657082217796,-1039,-9,207
1657082217836,-1099,-160,277
1657082217876,-1087,-172,223
1657082217916,-1007,-50,176
1657082217956,-948,-8,180
1657082217996,-884,14,280
1657082218036,-997,-57,362
1657082218076,-1050,-137,322
1657082218116,-995,-132,259
1657082218156,-910,-30,209
1657082218196,-925,0,184
1657082218236,-996,-9,172
1657082218276,-1039,-21,186
1657082218316,-1050,-31,220
1657082218356,-1031,-36,250
1657082218396,-1027,-45,276
1657082218436,-1070,-87,312
1657082218476,-1038,-61,310
1657082218516,-1030,-65,317
1657082218556,-1006,-55,292
1657082218596,-1007,-93,269
1657082218636,-1011,-159,293
1657082218676,-996,-204,307
1657082218716,-951,-193,293
1657082218756,-957,-220,298
1657082218796,-947,-234,262
1657082218836,-955,-228,239
1657082218876,-950,-165,235
1657082218916,-931,-112,245
1657082218956,-920,-110,280
1657082218996,-922,-116,276
1657082219036,-977,-143,289
1657082219076,-988,-155,299
1657082219116,-994,-116,282
1657082219156,-986,-87,277
1657082219196,-963,-65,275
1657082219236,-1010,-91,308
1657082219276,-1047,-72,309
1657082219316,-1048,-97,352
1657082219356,-1050,-179,382
1657082219396,-1008,-167,396
1657082219436,-966,-166,462
1657082219476,-909,-144,448
1657082219516,-833,-66,443
1657082219556,-848,-100,491
1657082219596,-906,-179,457
1657082219636,-940,-211,384
1657082219676,-869,-136,320
1657082219716,-857,-90,363
1657082219756,-919,-75,330
1657082219796,-971,-115,348
1657082219836,-1013,-123,353
1657082219876,-994,-112,299
1657082219916,-989,-84,292
1657082219956,-1033,-78,343
1657082219996,-1086,-138,370
1657082220036,-1098,-119,341
1657082220076,-1084,-91,287
1657082220116,-1092,-115,246
1657082220156,-1065,-182,227
1657082220196,-985,-177,163
1657082220236,-974,-211,183
1657082220276,-938,-239,204
1657082220316,-960,-297,138
1657082220356,-951,-246,112
1657082220396,-929,-167,120
1657082220436,-952,-117,117
1657082220476,-975,-125,190
1657082220516,-946,-64,224
1657082220556,-1019,-73,273
1657082220596,-1007,-56,261
1657082220636,-1070,-78,294
1657082220676,-1123,-139,300
1657082220716,-1120,-36,267
1657082220756,-1092,50,369
1657082220796,-1100,4,432
1657082220836,-1045,-121,417
1657082220876,-908,-86,346
1657082220916,-800,-3,369
1657082220956,-858,-12,357
1657082220996,-857,14,288
1657082221036,-949,-29,252
1657082221076,-942,21,242
1657082221116,-979,42,250
1657082221156,-982,88,261
1657082221196,-992,65,246
1657082221236,-1012,53,266
1657082221276,-1016,56,249
1657082221316,-1005,66,260
1657082221356,-1038,51,284
1657082221396,-1028,36,273
1657082221436,-1035,55,257
1657082221476,-1076,84,205
1657082221516,-1122,21,93
1657082221556,-1110,-5,89
1657082221596,-1069,-41,102
1657082221636,-967,-10,91
1657082221676,-988,12,125
1657082221716,-1013,-27,107
1657082221756,-1029,-39,112
1657082221796,-967,21,136
1657082221836,-931,111,148
1657082221876,-929,181,184
1657082221916,-975,212,201
1657082221956,-1001,158,207
1657082221996,-1010,159,251
1657082222036,-1040,167,245
1657082222076,-1087,283,298
1657082222116,-1149,344,322
1657082222156,-1207,339,360
1657082222196,-1198,260,362
1657082222236,-1058,251,296
1657082222276,-768,368,221
1657082222316,-637,456,239
1657082222356,-625,465,238
1657082222396,-641,409,160
1657082222436,-693,372,108
1657082222476,-807,434,116
1657082222516,-875,488,136
1657082222556,-893,502,135
1657082222596,-907,540,127
1657082222636,-938,508,151
1657082222676,-934,497,174
1657082222716,-1015,402,159
1657082222756,-1010,390,116
1657082222796,-1067,409,120
1657082222836,-1039,382,19
1657082222876,-1022,381,10
1657082222916,-1030,271,47
1657082222956,-1029,241,37
1657082222996,-1007,220,29
1657082223036,-973,204,6
1657082223076,-937,283,20
1657082223116,-870,324,39
1657082223156,-854,370,84
1657082223196,-895,361,121
1657082223236,-907,334,108
1657082223276,-932,369,150
1657082223316,-981,359,159
1657082223356,-1014,308,135
1657082223396,-1055,284,163
1657082223436,-1043,314,143
1657082223476,-1051,342,188
1657082223516,-1081,313,237
1657082223556,-1133,191,268
1657082223596,-1109,88,239
1657082223636,-933,167,200
1657082223676,-883,251,235
1657082223716,-944,229,235
1657082223756,-976,171,209
1657082223796,-959,159,186
1657082223836,-958,221,209
1657082223876,-937,266,227
1657082223916,-949,263,234
1657082223956,-940,279,202
1657082223996,-973,295,222
1657082224036,-992,278,195
1657082224076,-958,286,181
1657082224116,-1002,267,216
1657082224156,-1017,276,223
1657082224196,-1045,262,220
1657082224236,-1081,249,257
1657082224276,-1093,185,255
1657082224316,-1062,93,251
1657082224356,-991,64,205
1657082224396,-931,113,226
1657082224436,-987,78,247
1657082224476,-955,96,197
1657082224516,-953,114,213
1657082224556,-928,153,217
1657082224596,-931,187,203
1657082224636,-941,173,198
1657082224676,-927,221,181
1657082224716,-957,252,217
1657082224756,-986,219,269
1657082224796,-1015,160,292
1657082224836,-1030,137,297
1657082224876,-1030,169,346
1657082224916,-1091,105,455
1657082224956,-1114,-15,471
1657082224996,-1040,-54,409
1657082225036,-954,-35,376
1657082225076,-841,24,385
1657082225116,-886,15,451
1657082225156,-949,-53,430
1657082225196,-912,-57,372
1657082225236,-915,3,322
1657082225276,-888,76,307
1657082225316,-916,77,316
1657082225356,-964,62,287
1657082225396,-990,66,274
1657082225436,-1010,13,295
1657082225476,-1023,16,304
1657082225516,-1076,-12,329
1657082225556,-1102,-8,296
1657082225596,-1109,10,273
1657082225636,-1123,-22,237
1657082225676,-1113,-154,242
1657082225716,-1070,-206,213
1657082225756,-998,-172,181
1657082225796,-919,-145,151
1657082225836,-907,-114,131
1657082225876,-892,-58,122
1657082225916,-875,22,178
1657082225956,-875,75,245
1657082225996,-1009,-113,300
1657082226036,-1037,-85,222
1657082226076,-1032,-7,220
1657082226116,-1019,24,244
1657082226156,-963,19,243
1657082226196,-1042,-35,267
1657082226236,-1099,-44,251
1657082226276,-1104,30,219
1657082226316,-1085,38,298
1657082226356,-1081,-44,398
1657082226396,-1099,-200,391
1657082226436,-999,-145,278
1657082226476,-860,-24,248
1657082226516,-879,8,312
1657082226556,-963,-81,342
1657082226596,-950,-95,313
1657082226636,-901,-30,260
1657082226676,-938,31,225
1657082226716,-920,37,247
1657082226756,-977,18,254
1657082226796,-971,55,261
1657082226836,-971,33,298
1657082226876,-1024,8,317
1657082226916,-1085,-54,318
1657082226956,-1094,-28,291
1657082226996,-1117,-32,272
1657082227036,-1157,-162,256
1657082227076,-1152,-331,224
1657082227116,-1038,-231,89
1657082227156,-902,-121,139
1657082227196,-845,-112,158
1657082227236,-941,-181,244
1657082227276,-1040,-217,221
1657082227316,-992,-150,170
1657082227356,-869,-15,153
1657082227396,-856,-25,170
1657082227436,-1015,-138,186
1657082227476,-1019,-104,185
1657082227516,-1052,-94,176
1657082227556,-978,-81,183
1657082227596,-984,-64,137
1657082227636,-978,-43,206
1657082227676,-1103,-100,311
1657082227716,-1088,-66,338
1657082227756,-1079,-58,439
1657082227796,-1113,-169,501
1657082227836,-1078,-217,419
1657082227876,-963,-168,327
1657082227916,-796,-19,294
1657082227956,-791,12,377
1657082227996,-915,-64,416
1657082228036,-968,-149,422
1657082228076,-912,-94,351
1657082228116,-875,-19,321
1657082228156,-891,16,300
1657082228196,-896,16,348
1657082228236,-974,-5,371
1657082228276,-999,-43,377
1657082228316,-1018,-109,376
1657082228356,-1029,-138,390
1657082228396,-1015,-143,365
1657082228436,-1034,-144,373
1657082228476,-1083,-207,406
1657082228516,-1117,-343,375
1657082228556,-1040,-330,335
1657082228596,-942,-268,258
1657082228636,-865,-205,230
1657082228676,-925,-246,262
1657082228716,-944,-291,229
1657082228756,-942,-222,196
1657082228796,-920,-134,202
1657082228836,-934,-118,207
1657082228876,-941,-120,176
1657082228916,-974,-100,179
1657082228956,-1003,-88,210
1657082228996,-1016,-114,228
1657082229036,-1046,-140,256
1657082229076,-1064,-94,297
1657082229116,-1030,-29,295
1657082229156,-1025,38,331
1657082229196,-1069,-20,411
1657082229236,-1124,-215,424
1657082229276,-1055,-194,381
1657082229316,-945,-91,380
1657082229356,-869,-43,423
1657082229396,-894,-111,420
1657082229436,-903,-147,370
1657082229476,-850,-120,313
1657082229516,-816,-48,276
1657082229556,-853,-62,285
1657082229596,-927,-75,288
1657082229636,-946,-35,251
1657082229676,-963,-3,285
1657082229716,-1015,-86,338
1657082229756,-1087,-191,340
1657082229796,-1104,-172,281
1657082229836,-1042,-85,236
1657082229876,-1006,-111,232
1657082229916,-1075,-246,200
1657082229956,-1078,-346,237
1657082229996,-1116,-354,153
1657082230036,-998,-286,161
1657082230076,-944,-338,182
1657082230116,-973,-356,167
1657082230156,-1011,-323,156
1657082230196,-992,-246,143
1657082230236,-898,-164,117
1657082230276,-896,-155,163
1657082230316,-911,-166,155
1657082230356,-972,-150,190
1657082230396,-983,-109,212
1657082230436,-1000,-152,268
1657082230476,-1037,-182,289
1657082230516,-1083,-138,229
1657082230556,-1062,-44,244
1657082230596,-1092,-94,337
1657082230636,-1087,-176,339
1657082230676,-1009,-117,325
1657082230716,-994,-122,354
1657082230756,-903,-105,354
1657082230796,-843,-92,374
1657082230836,-919,-173,401
1657082230876,-919,-202,375
1657082230916,-913,-177,358
1657082230956,-867,-114,318
1657082230996,-877,-83,282
1657082231036,-939,-89,275
1657082231076,-973,-101,267
1657082231116,-952,-81,265
1657082231156,-1009,-114,282
1657082231196,-1011,-134,310
1657082231236,-1052,-154,379
1657082231276,-1083,-192,362
1657082231316,-1060,-186,262
1657082231356,-1036,-158,212
1657082231396,-1008,-156,161
1657082231436,-1247,-291,388
1657082231476,-1088,-303,353
1657082231516,-929,-267,304
1657082231556,-966,-302,305
1657082231596,-914,-288,258
1657082231636,-919,-230,175
1657082231676,-919,-149,102
1657082231716,-851,-55,28
1657082231756,-886,-108,108
1657082231796,-1074,-258,200
1657082231836,-1036,-193,201
1657082231876,-999,-96,176
1657082231916,-954,-71,151
1657082231956,-928,-72,190
1657082231996,-989,-93,299
1657082232036,-982,-35,198
1657082232076,-1029,-10,217
1657082232116,-1111,-96,269
1657082232156,-1148,-253,334
1657082232196,-1185,-249,308
1657082232236,-1104,-270,346
1657082232276,-871,-214,415
1657082232316,-855,-209,532
1657082232356,-876,-266,463
1657082232396,-841,-226,380
1657082232436,-804,-130,324
1657082232476,-838,-120,351
1657082232516,-884,-134,420
1657082232556,-929,-133,385
1657082232596,-961,-97,320
1657082232636,-1010,-110,368
1657082232676,-943,-34,318
1657082232716,-1002,-57,323
1657082232756,-1020,-49,323
1657082232796,-995,-102,278
1657082232836,-1096,-172,245
1657082232876,-1049,-83,314
1657082232916,-1073,-168,345
1657082232956,-1050,-264,339
1657082232996,-999,-254,331
1657082233036,-954,-227,311
1657082233076,-966,-323,304
1657082233116,-970,-296,236
1657082233156,-932,-161,182
1657082233196,-922,-52,161
1657082233236,-841,-14,186
1657082233276,-827,-53,212
1657082233316,-883,-71,226
1657082233356,-954,-62,224
1657082233396,-1016,-8,201
1657082233436,-1121,-209,411
1657082233476,-1096,-133,233
1657082233516,-1088,-38,329
1657082233556,-1018,-59,456
1657082233596,-1011,-191,523
1657082233636,-1045,-339,555
1657082233676,-945,-167,371
1657082233716,-864,3,392
1657082233756,-843,-39,528
1657082233796,-893,-156,571
1657082233836,-920,-225,444
1657082233876,-844,-81,325
1657082233916,-842,-27,368
1657082233956,-911,-39,391
1657082233996,-931,-53,363
1657082234036,-961,-17,350
1657082234076,-955,0,347
1657082234116,-964,-25,385
1657082234156,-955,-50,405
1657082234196,-995,-111,404
1657082234236,-1029,-129,367
1657082234276,-1040,-147,322
1657082234316,-1057,-214,297
1657082234356,-1113,-317,346
1657082234396,-1144,-362,330
1657082234436,-1027,-330,299
1657082234476,-932,-295,246
1657082234516,-899,-246,262
1657082234556,-889,-175,251
1657082234596,-874,-138,265
1657082234636,-846,-139,276
1657082234676,-900,-146,262
1657082234716,-972,-150,255
1657082234756,-1009,-120,229
1657082234796,-992,-64,212
1657082234836,-940,-24,238
1657082234876,-946,-79,298
1657082234916,-1026,-117,340
1657082234956,-1028,-60,339
1657082234996,-971,27,347
1657082235036,-956,-4,397
1657082235076,-1040,-162,459
1657082235116,-1067,-195,460
1657082235156,-984,-108,437
1657082235196,-933,-88,447
1657082235236,-866,-17,481
1657082235276,-896,-92,557
1657082235316,-915,-167,523
1657082235356,-854,-135,436
1657082235396,-801,-36,340
1657082235436,-842,-28,329
1657082235476,-887,-55,334
1657082235516,-933,-82,329
1657082235556,-969,-46,318
1657082235596,-963,-56,377
1657082235636,-993,-55,389
1657082235676,-1060,-140,431
1657082235716,-1076,-119,373
1657082235756,-1081,-130,322
1657082235796,-1051,-130,303
1657082235836,-1058,-173,271
1657082235876,-1048,-187,264
1657082235916,-986,-244,301
1657082235956,-960,-271,365
1657082235996,-948,-303,339
1657082236036,-903,-271,330
1657082236076,-884,-214,297
1657082236116,-926,-172,298
1657082236156,-888,-147,321
1657082236196,-850,-118,363
1657082236236,-876,-118,349
1657082236276,-934,-98,400
1657082236316,-981,-103,417
1657082236356,-966,-47,380
1657082236396,-941,-46,429
1657082236436,-974,-102,456
1657082236476,-1009,-81,449
1657082236516,-1007,-51,494
1657082236556,-968,-65,530
1657082236596,-936,-160,569
1657082236636,-898,-155,505
1657082236676,-882,-59,431
1657082236716,-909,-34,500
1657082236756,-940,-138,554
1657082236796,-897,-154,428
1657082236836,-841,-72,357
1657082236876,-844,-6,333
1657082236916,-900,-30,377
1657082236956,-932,-57,390
1657082236996,-937,-39,366
1657082237036,-937,-30,353
1657082237076,-970,-44,358
1657082237116,-973,-31,372
1657082237156,-988,-45,392
1657082237196,-1022,-73,414
1657082237236,-1033,-89,375
1657082237276,-1029,-81,351
1657082237316,-1029,-97,358
1657082237356,-1032,-180,401
1657082237396,-1031,-237,418
1657082237436,-956,-260,388
1657082237476,-896,-222,384
1657082237516,-947,-281,391
1657082237556,-935,-230,305
1657082237596,-957,-182,277
1657082237636,-979,-151,271
1657082237676,-914,-129,330
1657082237716,-857,-79,181
1657082237756,-907,-80,291
1657082237796,-959,-81,295
1657082237836,-949,-25,263
1657082237876,-970,-93,331
1657082237916,-1011,-134,370
1657082237956,-997,-95,383
1657082237996,-981,-84,384
1657082238036,-939,-39,350
1657082238076,-965,-34,430
1657082238116,-1021,-139,469
1657082238156,-1076,-280,537
1657082238196,-977,-208,494
1657082238236,-878,-125,442
1657082238276,-885,-127,494
1657082238316,-912,-190,487
1657082238356,-939,-237,460
1657082238396,-861,-129,375
1657082238436,-811,-17,343
1657082238476,-876,-33,393
1657082238516,-932,-70,418
1657082238556,-939,-64,409
1657082238596,-911,-42,397
1657082238636,-944,0,409
1657082238676,-956,6,413
1657082238716,-972,-31,425
1657082238756,-1022,-94,438
1657082238796,-988,-77,371
1657082238836,-973,-44,303
1657082238876,-1003,-12,253
1657082238916,-1054,-80,300
1657082238956,-1025,-157,339
1657082238996,-1113,-253,390
1657082239036,-1055,-265,323
1657082239076,-885,-177,237
1657082239116,-982,-252,268
1657082239156,-945,-233,274
1657082239196,-897,-161,236
1657082239236,-900,-93,230
1657082239276,-870,-65,268
1657082239316,-910,-93,287
1657082239356,-962,-77,258
1657082239396,-1005,-80,281
1657082239436,-958,-70,302
1657082239476,-975,-114,350
1657082239516,-1058,-175,403
1657082239556,-1020,-45,389
1657082239596,-1090,-146,517
1657082239636,-1113,-294,487
1657082239676,-980,-210,368
1657082239716,-795,16,284
1657082239756,-835,-31,447
1657082239796,-950,-159,492
1657082239836,-938,-225,454
1657082239876,-834,-98,374
1657082239916,-855,-70,397
1657082239956,-922,-72,423
1657082239996,-937,-58,391
1657082240036,-944,-42,373
1657082240076,-966,-58,376
1657082240116,-986,-59,353
1657082240156,-980,-63,376
1657082240196,-1016,-66,370
1657082240236,-1052,-120,362
1657082240276,-1070,-172,337
1657082240316,-1093,-262,346
1657082240356,-1116,-301,319
1657082240396,-1050,-334,278
1657082240436,-933,-254,132
1657082240476,-972,-326,202
1657082240516,-930,-270,233
1657082240556,-880,-186,198
1657082240596,-846,-169,243
1657082240636,-875,-166,257
1657082240676,-899,-199,264
1657082240716,-1012,-395,325
1657082240756,-1025,-182,197
1657082240796,-1002,-128,211
1657082240836,-988,-141,333
1657082240876,-1056,-227,359
1657082240916,-1064,-157,337
1657082240956,-986,-72,298
1657082240996,-1014,-38,290
1657082241036,-1009,-69,401
1657082241076,-1020,-204,497
1657082241116,-1012,-245,495
1657082241156,-959,-151,431
1657082241196,-861,-60,373
1657082241236,-873,-91,443
1657082241276,-914,-164,457
1657082241316,-844,-105,388
1657082241356,-840,-33,343
1657082241396,-886,-8,392
1657082241436,-913,-21,440
1657082241476,-919,-49,447
1657082241516,-898,-40,396
1657082241556,-987,-47,458
1657082241596,-922,-10,459
1657082241636,-956,-24,499
1657082241676,-978,-47,508
1657082241716,-975,-34,474
1657082241756,-993,-59,366
1657082241796,-962,-71,372
1657082241836,-1009,-37,350
1657082241876,-1008,-46,364
1657082241916,-1051,-196,366
1657082241956,-1041,-256,299
1657082241996,-1038,-264,250
1657082242036,-936,-172,161
1657082242076,-904,-163,193
1657082242116,-897,-204,294
1657082242156,-986,-215,361
1657082242196,-969,-123,345
1657082242236,-878,-24,327
1657082242276,-848,-2,376
1657082242316,-853,-30,419
1657082242356,-877,-12,359
1657082242396,-928,-27,397
1657082242436,-923,-7,401
1657082242476,-969,-42,465
1657082242516,-972,-1,461
1657082242556,-1020,11,567
1657082242596,-1080,-97,621
1657082242636,-1046,-120,616
1657082242676,-982,-90,565
1657082242716,-905,-63,527
1657082242756,-837,-104,563
1657082242796,-806,-140,586
1657082242836,-820,-130,478
1657082242876,-805,-80,422
1657082242916,-739,3,422
1657082242956,-831,42,378
1657082242996,-859,-11,452
1657082243036,-898,-54,501
1657082243076,-972,-34,402
1657082243116,-951,-26,410
1657082243156,-1014,-82,418
1657082243196,-1090,-154,376
1657082243236,-1097,-110,319
1657082243276,-1097,-76,142
1657082243316,-1194,-142,199
1657082243356,-1225,-160,213
1657082243396,-1189,-265,280
1657082243436,-1083,-240,223
1657082243476,-1095,-262,236
1657082243516,-1075,-213,285
1657082243556,-1141,-209,430
1657082243596,-1100,-58,546
1657082243636,-940,60,646
1657082243676,-772,145,655
1657082243716,-576,250,482
1657082243756,-569,280,443
1657082243796,-539,342,410
1657082243836,-580,443,400
1657082243876,-576,516,472
1657082243916,-540,566,493
1657082243956,-623,516,586
1657082243996,-553,551,644
1657082244036,-550,557,695
1657082244076,-545,553,719
1657082244116,-598,545,753
1657082244156,-597,602,777
1657082244196,-590,521,755
1657082244236,-495,529,681
1657082244276,-414,543,649
1657082244316,-409,542,632
1657082244356,-457,536,612
1657082244396,-438,571,633
1657082244436,-445,566,654
1657082244476,-450,555,686
1657082244516,-447,536,686
1657082244556,-427,567,696
1657082244596,-461,576,743
1657082244636,-485,602,734
1657082244676,-508,613,767
1657082244716,-574,553,749
1657082244756,-623,522,761
1657082244796,-661,504,740
1657082244836,-718,559,757
1657082244876,-741,520,750
1657082244916,-744,379,755
1657082244956,-675,280,685
1657082244996,-636,338,646
1657082245036,-617,384,613
1657082245076,-654,447,613
1657082245116,-665,423,612
1657082245156,-639,420,591
1657082245196,-646,426,600
1657082245236,-598,462,604
1657082245276,-622,464,619
1657082245316,-650,494,630
1657082245356,-669,515,618
1657082245396,-655,541,600
1657082245436,-647,553,636
1657082245476,-603,536,648
1657082245516,-548,565,695
1657082245556,-553,691,701
1657082245596,-564,606,762
1657082245636,-537,567,802
1657082245676,-528,498,814
1657082245716,-495,421,736
1657082245756,-475,435,681
1657082245796,-481,471,652
1657082245836,-490,533,628
1657082245876,-490,504,612
1657082245916,-500,498,655
1657082245956,-511,487,695
1657082245996,-533,466,725
1657082246036,-542,448,741
1657082246076,-550,443,740
1657082246116,-576,430,719
1657082246156,-577,484,726
1657082246196,-618,516,820
1657082246236,-659,513,851
1657082246276,-699,551,848
1657082246316,-732,533,817
1657082246356,-743,417,770
1657082246396,-694,274,679
1657082246436,-645,225,610
1657082246476,-640,258,607
1657082246516,-616,301,610
1657082246556,-665,416,652
1657082246596,-714,455,704
1657082246636,-687,392,678
1657082246676,-660,356,645
1657082246716,-584,392,597
1657082246756,-592,384,623
1657082246796,-568,435,622
1657082246836,-584,496,694
1657082246876,-567,552,756
1657082246916,-580,611,823
1657082246956,-613,684,885
1657082246996,-629,528,898
1657082247036,-593,442,853
1657082247076,-534,392,760
1657082247116,-475,459,665
1657082247156,-422,559,631
1657082247196,-418,559,634
1657082247236,-405,548,636
1657082247276,-417,531,648
1657082247316,-440,522,687
1657082247356,-460,511,723
1657082247396,-486,465,736
1657082247436,-508,481,753
1657082247476,-542,487,756
1657082247516,-535,480,740
1657082247556,-623,516,760
1657082247596,-683,513,789
1657082247636,-692,516,789
1657082247676,-596,572,764
1657082247716,-613,571,768
1657082247756,-620,464,782
1657082247796,-650,279,789
1657082247836,-593,252,722
1657082247876,-598,338,657
1657082247916,-595,366,637
1657082247956,-632,385,642
1657082247996,-602,361,658
1657082248036,-604,381,668
1657082248076,-590,418,683
1657082248116,-569,441,704
1657082248156,-554,446,726
1657082248196,-576,384,710
1657082248236,-582,421,666
1657082248276,-596,489,698
1657082248316,-573,500,723
1657082248356,-578,493,769
1657082248396,-617,582,850
1657082248436,-591,582,897
1657082248476,-564,483,876
1657082248516,-518,476,843
1657082248556,-458,442,819
1657082248596,-404,429,802
1657082248636,-379,443,755
1657082248676,-348,489,741
1657082248716,-364,484,715
1657082248756,-398,463,705
1657082248796,-421,449,709
1657082248836,-459,471,719
1657082248876,-521,494,763
1657082248916,-539,477,778
1657082248956,-556,456,819
1657082248996,-516,431,850
1657082249036,-493,435,871
1657082249076,-540,402,887
1657082249116,-559,432,864
1657082249156,-596,545,801
1657082249196,-648,532,804
1657082249236,-705,367,824
1657082249276,-676,206,731
1657082249316,-669,205,660
1657082249356,-665,305,596
1657082249396,-651,355,567
1657082249436,-664,372,576
1657082249476,-651,345,586
1657082249516,-668,360,610
1657082249556,-666,388,616
1657082249596,-653,449,644
1657082249636,-626,465,673
1657082249676,-574,491,717
1657082249716,-578,497,772
1657082249756,-576,555,767
1657082249796,-595,625,791
1657082249836,-586,612,800
1657082249876,-591,550,815
1657082249916,-550,460,831
1657082249956,-506,418,798
1657082249996,-455,463,738
1657082250036,-423,477,699
1657082250076,-424,481,705
1657082250116,-444,426,705
1657082250156,-482,450,704
1657082250196,-497,475,711
1657082250236,-521,481,690
1657082250276,-538,456,702
1657082250316,-537,470,701
1657082250356,-545,487,708
1657082250396,-553,540,712
1657082250436,-551,548,737
1657082250476,-606,497,795
1657082250516,-609,466,805
1657082250556,-645,486,787
1657082250596,-653,546,777
1657082250636,-668,461,797
1657082250676,-658,330,804
1657082250716,-649,256,751
1657082250756,-630,294,675
1657082250796,-624,366,638
1657082250836,-644,442,644
1657082250876,-626,412,644
1657082250916,-615,379,645
1657082250956,-608,360,617
1657082250996,-608,394,614
1657082251036,-636,413,629
1657082251076,-677,397,652
1657082251116,-694,448,627
1657082251156,-674,497,666
1657082251196,-634,510,700
1657082251236,-619,495,727
1657082251276,-606,530,732
1657082251316,-607,587,742
1657082251356,-627,528,746
1657082251396,-627,409,710
1657082251436,-621,420,660
1657082251476,-639,374,626
1657082251516,-621,390,603
1657082251556,-670,342,610
1657082251596,-705,284,602
1657082251636,-690,254,545
1657082251676,-711,307,527
1657082251716,-786,338,561
1657082251756,-814,309,569
1657082251796,-843,262,571
1657082251836,-863,254,579
1657082251876,-874,229,584
1657082251916,-878,253,601
1657082251956,-912,223,650
1657082251996,-923,210,637
1657082252036,-942,242,611
1657082252076,-953,267,606
1657082252116,-921,204,571
1657082252156,-854,120,533
1657082252196,-797,91,511
1657082252236,-816,99,520
1657082252276,-826,55,517
1657082252316,-865,32,533
1657082252356,-899,81,547
1657082252396,-909,126,512
1657082252436,-859,164,481
1657082252476,-836,151,476
1657082252516,-798,153,480
1657082252556,-772,177,482
1657082252596,-814,170,511
1657082252636,-830,175,537
1657082252676,-856,178,605
1657082252716,-902,182,657
1657082252756,-929,164,684
1657082252796,-895,144,761
1657082252836,-940,92,781
1657082252876,-825,99,818
1657082252916,-786,78,657
1657082252956,-711,122,598
1657082252996,-709,85,651
1657082253036,-767,55,656
1657082253076,-718,79,603
1657082253116,-712,132,585
1657082253156,-736,144,618
1657082253196,-742,154,637
1657082253236,-760,161,641
1657082253276,-778,150,637
1657082253316,-797,132,655
1657082253356,-810,121,669
1657082253396,-840,74,699
1657082253436,-857,49,714
1657082253476,-852,87,696
1657082253516,-840,137,724
1657082253556,-896,61,803
1657082253596,-895,-29,792
1657082253636,-832,-94,736
1657082253676,-731,-62,646
1657082253716,-701,-53,638
1657082253756,-710,-27,630
1657082253796,-721,1,629
1657082253836,-733,16,598
1657082253876,-730,25,592
1657082253916,-740,63,635
1657082253956,-767,86,661
1657082253996,-762,60,675
1657082254036,-818,36,657
1657082254076,-804,75,624
1657082254116,-799,69,640
1657082254156,-796,75,663
1657082254196,-797,84,696
1657082254236,-811,90,717
1657082254276,-829,139,707
1657082254316,-810,102,747
1657082254356,-786,23,771
1657082254396,-741,15,742
1657082254436,-715,43,728
1657082254476,-685,63,732
1657082254516,-654,55,743
1657082254556,-661,4,760
1657082254596,-629,4,736
1657082254636,-640,33,700
1657082254676,-677,78,734
1657082254716,-714,57,763
1657082254756,-719,53,738
1657082254796,-775,38,745
1657082254836,-810,167,825
1657082254876,-836,156,833
1657082254916,-851,114,777
1657082254956,-938,45,822
1657082254996,-989,20,876
1657082255036,-1017,106,903
1657082255076,-890,150,846
1657082255116,-759,254,737
1657082255156,-622,210,600
1657082255196,-604,206,592
1657082255236,-542,207,583
1657082255276,-534,225,599
1657082255316,-538,255,609
1657082255356,-595,355,628
1657082255396,-625,409,580
1657082255436,-599,427,540
1657082255476,-600,461,583
1657082255516,-604,466,631
1657082255556,-611,445,649
1657082255596,-631,450,663
1657082255636,-657,458,660
1657082255676,-668,532,619
1657082255716,-644,589,617
1657082255756,-640,594,635
1657082255796,-624,565,646
1657082255836,-621,506,647
1657082255876,-637,573,656
1657082255916,-615,643,651
1657082255956,-658,602,682
1657082255996,-635,483,685
1657082256036,-603,436,712
1657082256076,-593,455,740
1657082256116,-556,510,692
1657082256156,-528,542,666
1657082256196,-510,526,668
1657082256236,-508,509,671
1657082256276,-527,537,656
1657082256316,-500,541,644
1657082256356,-506,521,645
1657082256396,-517,505,645
1657082256436,-543,542,624
1657082256476,-588,584,639
1657082256516,-631,541,626
1657082256556,-675,578,649
1657082256596,-712,570,653
1657082256636,-719,548,649
1657082256676,-718,543,664
1657082256716,-743,568,678
1657082256756,-734,549,667
1657082256796,-737,476,685
1657082256836,-724,354,709
1657082256876,-697,275,684
1657082256916,-626,264,642
1657082256956,-615,364,622
1657082256996,-595,477,602
1657082257036,-602,486,588
1657082257076,-629,466,557
1657082257116,-650,426,566
1657082257156,-682,437,565
1657082257196,-701,437,571
1657082257236,-690,435,548
1657082257276,-705,428,546
1657082257316,-731,448,518
1657082257356,-722,467,606
1657082257396,-680,537,686
1657082257436,-677,636,777
1657082257476,-649,541,799
1657082257516,-585,454,685
1657082257556,-616,369,591
1657082257596,-742,472,733
1657082257636,-687,504,745
1657082257676,-622,474,747
1657082257716,-535,397,689
1657082257756,-482,433,639
1657082257796,-500,501,593
1657082257836,-549,529,597
1657082257876,-574,510,587
1657082257916,-575,531,596
1657082257956,-563,608,619
1657082257996,-566,644,625
1657082258036,-558,616,634
1657082258076,-620,486,674
1657082258116,-673,495,687
1657082258156,-723,521,688
1657082258196,-751,563,710
1657082258236,-769,592,754
1657082258276,-755,548,741
1657082258316,-709,417,734
1657082258356,-635,331,659
1657082258396,-627,306,590
1657082258436,-649,290,604
1657082258476,-698,289,638
1657082258516,-745,302,654
1657082258556,-730,343,658
1657082258596,-695,366,635
1657082258636,-625,424,584
1657082258676,-584,427,552
1657082258716,-574,423,585
1657082258756,-657,414,715
1657082258796,-652,391,830
1657082258836,-656,491,907
1657082258876,-660,634,902
1657082258916,-608,643,844
1657082258956,-539,502,777
1657082258996,-541,449,744
1657082259036,-501,463,693
1657082259076,-464,499,671
1657082259116,-408,527,623
1657082259156,-422,562,587
1657082259196,-486,594,599
1657082259236,-486,620,633
1657082259276,-519,575,645
1657082259316,-539,481,642
1657082259356,-574,512,646
1657082259396,-568,517,630
1657082259436,-605,544,648
1657082259476,-625,540,698
1657082259516,-628,598,729
1657082259556,-610,548,729
1657082259596,-681,524,776
1657082259636,-720,401,809
1657082259676,-756,283,848
1657082259716,-708,225,812
1657082259756,-622,247,725
1657082259796,-581,308,662
1657082259836,-609,340,640
1657082259876,-616,325,628
1657082259916,-624,309,615
1657082259956,-644,345,605
1657082259996,-676,414,581
1657082260036,-622,490,554
1657082260076,-771,359,554
1657082260116,-756,289,488
1657082260156,-879,205,569
1657082260196,-904,159,623
1657082260236,-907,208,660
1657082260276,-925,219,710
1657082260316,-886,250,709
1657082260356,-882,154,712
1657082260396,-846,83,676
1657082260436,-820,58,658
1657082260476,-801,138,656
1657082260516,-732,228,616
1657082260556,-728,234,642
1657082260596,-737,187,644
1657082260636,-747,152,625
1657082260676,-757,142,610
1657082260716,-739,218,575
1657082260756,-750,229,594
1657082260796,-747,227,575
1657082260836,-777,224,608
1657082260876,-823,206,619
1657082260916,-857,179,659
1657082260956,-902,95,675
1657082260996,-898,139,635
1657082261036,-975,40,649
1657082261076,-950,-58,589
1657082261116,-974,-139,595
1657082261156,-877,-130,510
1657082261196,-869,-113,500
1657082261236,-842,-98,476
1657082261276,-829,-21,448
1657082261316,-806,76,449
1657082261356,-822,73,515
1657082261396,-837,0,531
1657082261436,-851,-7,540
1657082261476,-867,11,571
1657082261516,-888,51,577
1657082261556,-878,70,567
1657082261596,-871,86,573
1657082261636,-871,100,575
1657082261676,-847,78,578
1657082261716,-847,55,581
1657082261756,-860,72,587
1657082261796,-883,141,601
1657082261836,-902,128,631
1657082261876,-944,-21,650
1657082261916,-904,-41,633
1657082261956,-864,-45,638
1657082261996,-841,-4,657
1657082262036,-801,-28,643
1657082262076,-792,-52,636
1657082262116,-776,-46,607
1657082262156,-744,40,555
1657082262196,-730,109,554
1657082262236,-764,111,561
1657082262276,-780,114,560
1657082262316,-807,136,551
1657082262356,-863,102,585
1657082262396,-879,60,572
1657082262436,-906,31,580
1657082262476,-930,34,580
1657082262516,-928,77,561
1657082262556,-985,52,569
1657082262596,-973,-11,536
1657082262636,-952,-70,515
1657082262676,-936,-134,511
1657082262716,-966,-131,472
1657082262756,-972,-150,439
1657082262796,-902,-89,434
1657082262836,-822,7,386
1657082262876,-806,56,360
1657082262916,-819,16,428
1657082262956,-904,-22,408
1657082262996,-883,-18,458
1657082263036,-922,-40,507
1657082263076,-964,-2,479
1657082263116,-959,63,397
1657082263156,-988,70,439
1657082263196,-1035,72,391
1657082263236,-1010,144,294
1657082263276,-978,216,210
1657082263316,-956,288,175
1657082263356,-1072,246,203
1657082263396,-1034,216,159
1657082263436,-1056,140,140
1657082263476,-1075,155,165
1657082263516,-1004,214,164
1657082263556,-948,213,121
1657082263596,-914,212,138
1657082263636,-972,76,87
1657082263676,-1001,63,120
1657082263716,-946,115,141
1657082263756,-935,119,151
1657082263796,-994,104,150
1657082263836,-1039,86,139
1657082263876,-1042,87,158
1657082263916,-996,102,189
1657082263956,-991,112,180
1657082263996,-1078,75,266
1657082264036,-1103,86,240
1657082264076,-1106,58,199
1657082264116,-1057,8,168
1657082264156,-1068,-41,161
1657082264196,-1153,-142,166
1657082264236,-1121,-156,115
1657082264276,-974,-105,73
1657082264316,-898,-71,67
1657082264356,-927,-78,38
1657082264396,-946,-27,11
1657082264436,-1002,3,33
1657082264476,-990,8,67
1657082264516,-981,8,55
1657082264556,-1006,23,43
1657082264596,-1061,-6,53
1657082264636,-1033,39,20
1657082264676,-1047,56,84
1657082264716,-1036,50,118
1657082264756,-1034,66,111
1657082264796,-1020,87,98
1657082264836,-1045,98,130
1657082264876,-1061,87,184
1657082264916,-1041,43,212
1657082264956,-1095,-50,257
1657082264996,-1120,-39,231
1657082265036,-1074,29,231
1657082265076,-1035,1,317
1657082265116,-915,49,339
1657082265156,-914,57,387
1657082265196,-986,13,379
1657082265236,-949,-13,351
1657082265276,-870,65,269
1657082265316,-868,115,242
1657082265356,-918,96,232
1657082265396,-944,94,206
1657082265436,-993,110,226
1657082265476,-907,159,181
1657082265516,-1133,12,348
1657082265556,-1110,1,331
1657082265596,-1133,-17,257
1657082265636,-1124,2,258
1657082265676,-1159,-131,265
1657082265716,-1209,-214,265
1657082265756,-1066,-192,207
1657082265796,-953,-174,159
1657082265836,-931,-176,151
1657082265876,-915,-159,122
1657082265916,-934,-122,118
1657082265956,-930,-84,131
1657082265996,-923,-52,142
1657082266036,-933,-46,143
1657082266076,-915,-1,89
1657082266116,-998,-4,74
1657082266156,-1026,5,93
1657082266196,-1041,3,145
1657082266236,-1045,7,165
1657082266276,-1088,21,174
1657082266316,-1065,101,153
1657082266356,-1054,72,138
1657082266396,-1182,-43,213
1657082266436,-1176,-57,290
1657082266476,-1052,-27,284
1657082266516,-897,42,309
1657082266556,-907,2,365
1657082266596,-1046,-94,428
1657082266636,-1087,-164,390
1657082266676,-884,-54,272
1657082266716,-781,36,185
1657082266756,-822,34,225
1657082266796,-887,16,272
1657082266836,-919,52,260
1657082266876,-965,75,281
1657082266916,-1024,46,332
1657082266956,-1141,-24,336
1657082266996,-1132,20,241
1657082267036,-1100,91,201
1657082267076,-1068,41,183
1657082267116,-1150,-156,188
1657082267156,-1187,-174,148
1657082267196,-1004,-164,115
1657082267236,-896,-139,101
1657082267276,-896,-153,127
1657082267316,-936,-182,178
1657082267356,-958,-150,104
1657082267396,-999,-95,100
1657082267436,-960,-85,130
1657082267476,-966,-75,121
1657082267516,-1002,-55,107
1657082267556,-980,8,89
1657082267596,-989,23,78
1657082267636,-1157,-74,191
1657082267676,-1154,-75,159
1657082267716,-1091,22,159
1657082267756,-1006,85,183
1657082267796,-993,94,223
1657082267836,-1048,-26,327
1657082267876,-1185,-136,427
1657082267916,-1110,-103,299
1657082267956,-921,11,168
1657082267996,-873,72,224
1657082268036,-937,24,305
1657082268076,-1053,-43,391
1657082268116,-946,-3,333
1657082268156,-833,108,277
1657082268196,-833,127,274
1657082268236,-874,116,274
1657082268276,-925,108,274
1657082268316,-970,104,265
1657082268356,-993,91,297
1657082268396,-1092,-42,364
1657082268436,-1073,-28,242
1657082268476,-1068,-7,189
1657082268516,-1106,-46,226
1657082268556,-1224,-206,323
1657082268596,-1207,-287,247
1657082268636,-1052,-205,151
1657082268676,-921,-151,147
1657082268716,-906,-159,182
1657082268756,-888,-134,172
1657082268796,-916,-78,149
1657082268836,-937,-48,209
1657082268876,-938,-41,223
1657082268916,-942,-42,198
1657082268956,-984,-22,196
1657082268996,-1005,-4,180
1657082269036,-996,33,175
1657082269076,-1011,45,208
1657082269116,-1071,-5,264
1657082269156,-1094,-20,221
1657082269196,-1082,63,190
1657082269236,-1090,87,220
1657082269276,-1122,9,326
1657082269316,-1129,-74,385
1657082269356,-1077,-32,367
1657082269396,-960,44,273
1657082269436,-875,125,310
1657082269476,-969,45,379
1657082269516,-1014,-36,349
1657082269556,-907,26,229
1657082269596,-849,127,157
1657082269636,-895,155,183
1657082269676,-931,124,217
1657082269716,-951,124,216
1657082269756,-980,155,209
1657082269796,-959,177,188
1657082269836,-1024,133,230
1657082269876,-1137,10,279
1657082269916,-1106,45,188
1657082269956,-1122,50,159
1657082269996,-1162,-26,138
1657082270036,-1061,-40,103
1657082270076,-1023,-63,79
1657082270116,-1051,-80,105
1657082270156,-1110,-184,166
1657082270196,-1051,-171,122
1657082270236,-990,-91,120
1657082270276,-936,-32,25
1657082270316,-924,27,119
1657082270356,-893,47,144
1657082270396,-832,57,157
1657082270436,-1036,-1,124
1657082270476,-1029,13,114
1657082270516,-1065,59,102
1657082270556,-1069,44,184
1657082270596,-1030,49,187
1657082270636,-1038,146,157
1657082270676,-1110,106,278
1657082270716,-1163,-63,352
1657082270756,-1092,-16,330
1657082270796,-1037,3,283
1657082270836,-900,86,203
1657082270876,-907,65,237
1657082270916,-1052,-49,244
1657082270956,-1027,-56,173
1657082270996,-802,70,-4
1657082271036,-930,90,115
1657082271076,-992,48,110
1657082271116,-1022,36,108
1657082271156,-1027,29,113
1657082271196,-1028,66,148
1657082271236,-1011,71,178
1657082271276,-1022,87,211
1657082271316,-1055,42,281
1657082271356,-1110,-22,269
1657082271396,-1120,-25,207
1657082271436,-1076,12,150
1657082271476,-1079,28,127
1657082271516,-1111,2,160
1657082271556,-1145,-79,223
1657082271596,-1070,-93,197
1657082271636,-1032,-139,141
1657082271676,-979,-131,99
1657082271716,-920,-54,68
1657082271756,-935,-8,92
1657082271796,-920,22,72
1657082271836,-923,70,92
1657082271876,-948,63,67
1657082271916,-960,60,43
1657082271956,-986,79,35
1657082271996,-999,119,7
1657082272036,-1024,137,34
1657082272076,-1079,87,90
1657082272116,-1101,97,99
1657082272156,-1079,124,88
1657082272196,-1033,163,97
1657082272236,-1029,153,125
1657082272276,-1139,33,209
1657082272316,-1171,-24,225
1657082272356,-1091,29,233
1657082272396,-994,34,258
1657082272436,-890,133,248
1657082272476,-943,90,289
1657082272516,-1013,-13,291
1657082272556,-1004,-19,241
1657082272596,-901,93,154
1657082272636,-880,157,126
1657082272676,-984,121,161
1657082272716,-1039,80,196
1657082272756,-1018,117,209
1657082272796,-999,134,215
1657082272836,-991,129,216
1657082272876,-1011,137,190
1657082272916,-1007,132,146
1657082272956,-1041,110,138
1657082272996,-1071,95,135
1657082273036,-1062,89,119
1657082273076,-1062,108,119
1657082273116,-1049,102,176
1657082273156,-1094,37,197
1657082273196,-1076,-23,172
1657082273236,-1064,-50,132
1657082273276,-1134,-141,187
1657082273316,-1059,-149,146
1657082273356,-964,-53,83
1657082273396,-953,-3,75
1657082273436,-930,31,117
1657082273476,-921,39,128
1657082273516,-919,40,104
1657082273556,-968,38,100
1657082273596,-1017,33,120
1657082273636,-1045,38,130
1657082273676,-1032,81,118
1657082273716,-1022,94,121
1657082273756,-1038,66,116
1657082273796,-1068,73,132
1657082273836,-1064,93,125
1657082273876,-1021,170,120
1657082273916,-1065,117,160
1657082273956,-1151,-20,198
1657082273996,-1146,-105,245
1657082274036,-1079,-96,291
1657082274076,-963,-35,284
1657082274116,-928,0,277
1657082274156,-983,-16,287
1657082274196,-1039,-19,299
1657082274236,-986,-5,285
1657082274276,-884,75,223
1657082274316,-886,115,209
1657082274356,-944,91,223
1657082274396,-991,75,194
1657082274436,-977,94,195
1657082274476,-990,86,202
1657082274516,-1019,99,208
1657082274556,-1029,108,201
1657082274596,-1027,123,198
1657082274636,-1040,116,224
1657082274676,-1075,81,220
1657082274716,-1111,81,173
1657082274756,-1130,50,140
1657082274796,-1143,6,176
1657082274836,-1090,-101,227
1657082274876,-957,-124,218
1657082274916,-951,-114,218
1657082274956,-999,-153,200
1657082274996,-988,-161,144
1657082275036,-924,-44,95
1657082275076,-935,68,84
1657082275116,-965,56,123
1657082275156,-979,1,164
1657082275196,-1020,-8,183
1657082275236,-1014,1,177
1657082275276,-989,32,123
1657082275316,-993,87,114
1657082275356,-1136,15,221
1657082275396,-1040,138,87
1657082275436,-1148,101,79
1657082275476,-1214,-9,151
1657082275516,-1292,-152,146
1657082275556,-1086,-38,189
1657082275596,-965,-19,187
1657082275636,-859,29,236
1657082275676,-874,9,245
1657082275716,-904,-48,223
1657082275756,-936,-78,261
1657082275796,-1078,-54,226
1657082275836,-1009,63,142
1657082275876,-1011,65,101
1657082275916,-994,108,84
1657082275956,-1042,71,81
1657082275996,-1021,40,104
1657082276036,-1011,41,156
1657082276076,-1034,6,206
1657082276116,-965,35,160
1657082276156,-898,115,222
1657082276196,-1153,67,213
1657082276236,-1081,90,89
1657082276276,-1090,114,89
1657082276316,-1054,70,139
1657082276356,-1086,5,157
1657082276396,-1120,-45,184
1657082276436,-1072,-75,156
1657082276476,-1014,-87,84
1657082276516,-994,-103,74
1657082276556,-1083,-185,142
1657082276596,-1070,-155,133
1657082276636,-1009,-85,110
1657082276676,-985,-37,140
1657082276716,-959,-4,168
1657082276756,-896,20,153
1657082276796,-953,4,156
1657082276836,-970,3,144
1657082276876,-1024,-9,152
1657082276916,-1045,27,131
1657082276956,-1028,72,133
1657082276996,-1006,89,162
1657082277036,-1023,57,197
1657082277076,-1073,48,204
1657082277116,-1088,61,214
1657082277156,-1092,66,232
1657082277196,-1089,9,236
1657082277236,-1069,12,259
1657082277276,-1044,-16,287
1657082277316,-966,17,252
1657082277356,-912,60,271
1657082277396,-926,60,300
1657082277436,-967,-22,285
1657082277476,-1013,-48,260
1657082277516,-913,40,205
1657082277556,-884,121,191
1657082277596,-925,113,174
1657082277636,-990,78,197
1657082277676,-989,96,188
1657082277716,-1009,90,220
1657082277756,-1004,67,222
1657082277796,-1036,35,235
1657082277836,-1083,41,203
1657082277876,-1095,86,179
1657082277916,-1091,73,176
1657082277956,-1102,-4,154
1657082277996,-1167,-95,120
1657082278036,-1214,-178,71
1657082278076,-1126,-184,39
1657082278116,-1003,-147,25
1657082278156,-914,-119,44
1657082278196,-902,-83,39
1657082278236,-937,-38,75
1657082278276,-994,-52,100
1657082278316,-943,-26,95
1657082278356,-958,-31,28
1657082278396,-1030,-47,11
1657082278436,-1040,-23,11
1657082278476,-1033,30,15
1657082278516,-993,81,38
1657082278556,-1033,75,95
1657082278596,-1083,39,136
1657082278636,-1104,36,133
1657082278676,-1071,40,135
1657082278716,-1006,112,98
1657082278756,-1064,128,132
1657082278796,-1128,1,190
1657082278836,-1182,-87,244
1657082278876,-1006,-6,263
1657082278916,-962,26,229
1657082278956,-952,55,250
1657082278996,-1017,18,307
1657082279036,-985,-6,267
1657082279076,-895,37,201
1657082279116,-848,121,183
1657082279156,-875,150,176
1657082279196,-957,125,169
1657082279236,-988,107,180
1657082279276,-1005,106,190
1657082279316,-1006,135,197
1657082279356,-1030,104,214
1657082279396,-1071,44,206
1657082279436,-1131,5,195
1657082279476,-1082,80,165
1657082279516,-1065,97,156
1657082279556,-1094,61,147
1657082279596,-1126,-9,178
1657082279636,-1091,-79,216
1657082279676,-1009,-120,169
1657082279716,-982,-135,121
1657082279756,-1011,-159,97
1657082279796,-997,-71,74
1657082279836,-985,-1,71
1657082279876,-998,29,115
1657082279916,-963,52,146
1657082279956,-947,39,108
1657082279996,-975,36,106
1657082280036,-1000,45,129
1657082280076,-1011,47,126
1657082280116,-994,89,122
1657082280156,-1008,92,132
1657082280196,-1021,95,140
1657082280236,-1050,97,156
1657082280276,-1061,101,165
1657082280316,-1036,128,177
1657082280356,-1070,81,207
1657082280396,-1090,13,254
1657082280436,-1043,29,309
1657082280476,-1008,-13,347
1657082280516,-996,-1,319
1657082280556,-977,3,344
1657082280596,-981,-43,390
1657082280636,-951,-81,351
1657082280676,-924,-45,282
1657082280716,-850,64,244
1657082280756,-895,78,289
1657082280796,-985,28,337
1657082280836,-987,27,351
1657082280876,-970,27,338
1657082280916,-948,26,322
1657082280956,-968,40,306
1657082280996,-978,59,277
1657082281036,-1018,52,283
1657082281076,-1056,10,295
1657082281116,-1068,9,273
1657082281156,-1064,29,265
1657082281196,-1059,45,269
1657082281236,-1087,-15,282
1657082281276,-1079,-83,325
1657082281316,-1067,-117,302
1657082281356,-1049,-147,278
1657082281396,-1035,-179,252
1657082281436,-964,-165,219
1657082281476,-926,-97,176
1657082281516,-912,-58,140
1657082281556,-889,4,139
1657082281596,-928,-12,202
1657082281636,-972,-40,201
1657082281676,-994,-24,185
1657082281716,-1010,-14,180
1657082281756,-1005,37,153
1657082281796,-994,92,157
1657082281836,-993,99,170
1657082281876,-1031,44,241
1657082281916,-1115,-51,274
1657082281956,-1056,68,192
1657082281996,-1050,119,208
1657082282036,-1107,31,337
1657082282076,-1173,-119,449
1657082282116,-1072,-82,400
1657082282156,-942,0,346
1657082282196,-893,13,345
1657082282236,-945,-37,388
1657082282276,-949,-74,351
1657082282316,-874,-8,281
1657082282356,-840,84,253
1657082282396,-873,95,298
1657082282436,-927,79,330
1657082282476,-949,84,321
1657082282516,-961,106,320
1657082282556,-1001,78,347
1657082282596,-1039,16,353
1657082282636,-1024,31,297
1657082282676,-1011,85,254
1657082282716,-998,123,245
1657082282756,-1025,107,268
1657082282796,-1084,84,287
1657082282836,-1076,59,292
1657082282876,-1103,-7,320
1657082282916,-1114,-72,352
1657082282956,-1054,-82,349
1657082282996,-946,-96,290
1657082283036,-952,-143,237
1657082283076,-958,-156,219
1657082283116,-907,-47,181
1657082283156,-948,-4,222
1657082283196,-1012,11,220
1657082283236,-952,4,243
1657082283276,-939,-9,231
1657082283316,-973,-17,209
1657082283356,-996,16,152
1657082283396,-994,83,119
1657082283436,-981,122,126
1657082283476,-989,84,179
1657082283516,-1043,0,179
1657082283556,-1039,27,128
1657082283596,-1058,104,177
1657082283636,-1104,64,285
1657082283676,-1127,-37,298
1657082283716,-1147,-83,371
1657082283756,-1018,-45,239
1657082283796,-1010,-72,223
1657082283836,-1009,-81,298
1657082283876,-1011,-131,353
1657082283916,-1067,-156,331
1657082283956,-912,-55,231
1657082283996,-823,59,168
1657082284036,-863,97,171
1657082284076,-963,46,195
1657082284116,-966,49,208
1657082284156,-955,105,247
1657082284196,-968,89,279
1657082284236,-1016,39,268
1657082284276,-1058,26,218
1657082284316,-1014,82,200
1657082284356,-1008,119,187
1657082284396,-1046,64,198
1657082284436,-996,67,142
1657082284476,-1026,51,144
1657082284516,-1038,-5,195
1657082284556,-1160,-111,297
1657082284596,-1130,-116,316
1657082284636,-1050,-111,261
1657082284676,-1013,-128,180
1657082284716,-1047,-168,186
1657082284756,-1025,-219,124
1657082284796,-994,-189,115
1657082284836,-1018,-78,115
1657082284876,-960,18,109
1657082284916,-972,26,172
1657082284956,-959,32,147
1657082284996,-975,25,145
1657082285036,-1002,20,132
1657082285076,-1007,32,127
1657082285116,-987,92,120
1657082285156,-981,138,126
1657082285196,-988,137,159
1657082285236,-1020,133,149
1657082285276,-1037,138,150
1657082285316,-1039,156,170
1657082285356,-1065,149,205
1657082285396,-1115,83,240
1657082285436,-1121,7,270
1657082285476,-1070,-46,288
1657082285516,-997,-72,292
1657082285556,-954,-61,279
1657082285596,-939,-19,297
1657082285636,-914,-24,314
1657082285676,-1064,-69,297
1657082285716,-1002,-30,298
1657082285756,-903,75,145
1657082285796,-863,89,208
1657082285836,-919,54,227
1657082285876,-1001,23,244
1657082285916,-1019,25,248
1657082285956,-1018,33,239
1657082285996,-1008,78,223
1657082286036,-1009,124,215
1657082286076,-1041,124,254
1657082286116,-1089,65,306
1657082286156,-1123,24,291
1657082286196,-1103,7,322
1657082286236,-1146,-76,297
1657082286276,-1116,-99,206
1657082286316,-1097,-59,210
1657082286356,-941,-57,155
1657082286396,-918,-118,178
1657082286436,-965,-134,167
1657082286476,-1041,-84,143
1657082286516,-993,-44,149
1657082286556,-926,25,157
1657082286596,-878,35,156
1657082286636,-896,45,142
1657082286676,-912,34,136
1657082286716,-1059,-9,133
1657082286756,-1044,38,132
1657082286796,-1017,94,130
1657082286836,-1011,100,181
1657082286876,-1018,70,144
1657082286916,-1094,59,167
1657082286956,-1067,76,203
1657082286996,-1004,114,252
1657082287036,-1051,12,254
1657082287076,-1084,-32,310
1657082287116,-1145,-73,317
1657082287156,-1034,-63,318
1657082287196,-942,1,274
1657082287236,-881,20,345
1657082287276,-932,-24,396
1657082287316,-977,-65,393
1657082287356,-967,-30,323
1657082287396,-877,76,241
1657082287436,-913,86,245
1657082287476,-969,50,286
1657082287516,-985,69,258
1657082287556,-1007,75,257
1657082287596,-922,83,298
1657082287636,-1094,121,423
1657082287676,-948,130,269
1657082287716,-928,228,258
1657082287756,-982,165,253
1657082287796,-1087,98,231
1657082287836,-1055,124,166
1657082287876,-1119,79,127
1657082287916,-1127,35,218
1657082287956,-1048,65,184
1657082287996,-1013,38,198
1657082288036,-1004,-10,174
1657082288076,-1059,-101,147
1657082288116,-1076,-148,143
1657082288156,-978,-43,71
1657082288196,-947,8,69
1657082288236,-944,42,58
1657082288276,-936,45,83
1657082288316,-978,35,92
1657082288356,-944,101,66
1657082288396,-971,106,36
1657082288436,-1075,75,81
1657082288476,-1016,143,93
1657082288516,-1022,180,54
1657082288556,-1064,153,165
1657082288596,-1080,150,182
1657082288636,-1099,170,238
1657082288676,-1121,140,304
1657082288716,-1105,110,337
1657082288756,-1107,35,348
1657082288796,-1030,100,291
1657082288836,-1000,44,290
1657082288876,-762,112,310
1657082288916,-953,35,306
1657082288956,-906,29,280
1657082288996,-905,39,131
1657082289036,-764,92,103
1657082289076,-922,175,304
1657082289116,-1042,121,263
1657082289156,-1019,52,201
1657082289196,-1032,64,190
1657082289236,-1053,71,146
1657082289276,-1056,46,191
1657082289316,-1042,58,196
1657082289356,-1077,55,199
1657082289396,-1092,21,203
1657082289436,-1076,51,166
1657082289476,-1086,26,170
1657082289516,-1068,28,186
1657082289556,-1094,-39,247
1657082289596,-1113,-85,271
1657082289636,-1019,-65,231
1657082289676,-1033,-102,196
1657082289716,-1015,-145,164
1657082289756,-950,-59,141
1657082289796,-939,-5,147
1657082289836,-923,35,141
1657082289876,-916,24,175
1657082289916,-951,7,124
1657082289956,-982,44,72
1657082289996,-1008,37,113
1657082290036,-1036,70,147
1657082290076,-1071,75,191
1657082290116,-1058,98,165
1657082290156,-1072,117,133
1657082290196,-1056,101,171
1657082290236,-1030,99,193
1657082290276,-1019,173,178
1657082290316,-1066,170,179
1657082290356,-1110,90,220
1657082290396,-1111,32,281
1657082290436,-1082,-5,247
1657082290476,-1014,28,194
1657082290516,-961,53,186
1657082290556,-935,54,260
1657082290596,-959,47,327
1657082290636,-1046,2,311
1657082290676,-909,91,230
1657082290716,-830,164,155
1657082290756,-875,164,169
1657082290796,-902,140,170
1657082290836,-959,115,213
1657082290876,-1014,77,234
1657082290916,-1023,80,224
1657082290956,-1018,132,150
1657082290996,-1064,120,223
1657082291036,-1125,95,234
1657082291076,-1134,90,219
1657082291116,-1133,27,233
1657082291156,-1191,-92,286
1657082291196,-1122,-106,229
1657082291236,-1052,-107,162
1657082291276,-924,-89,189
1657082291316,-907,-98,103
1657082291356,-1015,-117,82
1657082291396,-1049,-88,105
1657082291436,-973,-21,62
1657082291476,-910,41,88
1657082291516,-897,-1,149
1657082291556,-988,-26,168
1657082291596,-973,-5,137
1657082291636,-1031,20,154
1657082291676,-960,7,217
1657082291716,-1073,29,190
1657082291756,-1008,53,216
1657082291796,-1036,41,213
1657082291836,-995,28,203
1657082291876,-1071,-1,171
1657082291916,-1042,112,203
1657082291956,-1078,69,205
1657082291996,-1162,-108,-2
1657082292036,-1215,-217,29
1657082292076,-1135,-174,45
1657082292116,-930,-165,80
1657082292156,-889,-66,121
1657082292196,-1000,-69,211
1657082292236,-991,-98,236
1657082292276,-940,-64,232
1657082292316,-883,21,204
1657082292356,-888,52,168
1657082292396,-942,73,208
1657082292436,-998,33,209
1657082292476,-1004,46,244
1657082292516,-987,40,247
1657082292556,-975,59,216
1657082292596,-993,0,232
1657082292636,-1162,-33,312
1657082292676,-1107,19,220
1657082292716,-1142,9,319
1657082292756,-1051,-74,292
1657082292796,-1098,-139,347
1657082292836,-1176,-168,413
1657082292876,-1037,-176,236
1657082292916,-900,-102,202
1657082292956,-921,-129,223
1657082292996,-989,-151,247
1657082293036,-987,-117,217
1657082293076,-929,-51,194
1657082293116,-884,-24,168
1657082293156,-894,-23,208
1657082293196,-985,-32,175
1657082293236,-1024,-28,199
1657082293276,-1022,2,212
1657082293316,-996,30,212
1657082293356,-975,50,226
1657082293396,-1014,22,240
1657082293436,-1034,3,247
1657082293476,-1052,25,204
1657082293516,-1061,64,243
1657082293556,-1152,-25,275
1657082293596,-1171,-108,315
1657082293636,-1121,-183,309
1657082293676,-1061,-147,331
1657082293716,-877,-45,273
1657082293756,-928,-17,268
1657082293796,-1003,-21,343
1657082293836,-1047,-48,301
1657082293876,-877,27,224
1657082293916,-803,67,226
1657082293956,-894,67,222
1657082293996,-926,16,283
1657082294036,-967,36,292
1657082294076,-1049,-13,302
1657082294116,-1032,16,283
1657082294156,-996,50,298
1657082294196,-1061,28,245
1657082294236,-1113,8,270
1657082294276,-1091,-13,240
1657082294316,-1078,-44,285
1657082294356,-1028,-71,313
1657082294396,-1063,-108,285
1657082294436,-1051,-99,189
1657082294476,-973,-85,167
1657082294516,-967,-82,168
1657082294556,-1041,-132,224
1657082294596,-981,-101,174
1657082294636,-920,-16,155
1657082294676,-832,1,182
1657082294716,-843,0,142
1657082294756,-806,-3,140
1657082294796,-1042,-3,217
1657082294836,-1004,-13,142
1657082294876,-1064,15,-8
1657082294916,-987,80,-18
1657082294956,-1064,32,72
1657082294996,-1103,-49,112
1657082295036,-1057,-10,72
1657082295076,-1061,51,230
1657082295116,-1072,112,214
1657082295156,-1073,15,218
1657082295196,-1150,-116,286
1657082295236,-1166,-180,281
1657082295276,-1019,-124,302
1657082295316,-916,-53,267
1657082295356,-891,-13,276
1657082295396,-911,-30,318
1657082295436,-987,-33,336
1657082295476,-1082,-119,387
1657082295516,-914,-33,289
1657082295556,-850,52,267
1657082295596,-880,65,274
1657082295636,-964,63,229
1657082295676,-983,46,258
1657082295716,-1035,37,271
1657082295756,-1009,65,243
1657082295796,-1012,74,246
1657082295836,-991,72,248
1657082295876,-1017,73,216
1657082295916,-1043,66,210
1657082295956,-1091,29,281
1657082295996,-1171,-102,289
1657082296036,-1155,-120,250
1657082296076,-1110,-149,280
1657082296116,-1006,-175,195
1657082296156,-926,-165,155
1657082296196,-924,-152,143
1657082296236,-964,-149,166
1657082296276,-931,-90,155
1657082296316,-900,-53,165
1657082296356,-898,-71,170
1657082296396,-942,-85,135
1657082296436,-1018,-104,162
1657082296476,-1037,-74,116
1657082296516,-1052,-65,155
1657082296556,-984,-44,165
1657082296596,-969,-49,191
1657082296636,-1058,-114,226
1657082296676,-1064,-111,167
1657082296716,-1074,-46,125
1657082296756,-1065,-20,135
1657082296796,-1009,33,142
1657082296836,-934,82,190
1657082296876,-1150,-104,383
1657082296916,-1316,-276,426
1657082296956,-1081,-197,330
1657082296996,-834,-77,282
1657082297036,-767,-20,239
1657082297076,-855,-26,311
1657082297116,-1020,-89,405
1657082297156,-1085,-97,384
1657082297196,-939,1,294
1657082297236,-827,66,252
1657082297276,-849,67,288
1657082297316,-960,36,270
1657082297356,-1039,30,308
1657082297396,-984,37,305
1657082297436,-973,29,339
1657082297476,-1024,2,371
1657082297516,-1080,8,310
1657082297556,-1064,-64,342
1657082297596,-1111,-120,380
1657082297636,-1207,-273,386
1657082297676,-1146,-292,334
1657082297716,-940,-191,185
1657082297756,-829,-144,165
1657082297796,-908,-198,198
1657082297836,-926,-141,171
1657082297876,-931,-79,160
1657082297916,-908,-65,177
1657082297956,-928,-60,155
1657082297996,-978,-49,135
1657082298036,-976,-19,133
1657082298076,-978,-4,170
1657082298116,-989,-4,181
1657082298156,-1040,-15,236
1657082298196,-1112,-79,321
1657082298236,-1039,-4,322
1657082298276,-1030,18,442
1657082298316,-1154,-89,476
1657082298356,-1168,-141,467
1657082298396,-1018,-107,464
1657082298436,-808,30,265
1657082298476,-813,49,376
1657082298516,-838,-22,487
1657082298556,-969,-141,571
1657082298596,-1001,-132,458
1657082298636,-792,52,317
1657082298676,-865,62,437
1657082298716,-918,91,394
1657082298756,-996,-20,437
1657082298796,-976,14,341
1657082298836,-994,-20,363
1657082298876,-993,-7,356
1657082298916,-967,6,373
1657082298956,-980,-2,378
1657082298996,-1003,-15,390
1657082299036,-1032,-44,386
1657082299076,-1056,-70,362
1657082299116,-1057,-131,399
1657082299156,-1016,-126,380
1657082299196,-944,-98,381
1657082299236,-990,-149,421
1657082299276,-1036,-237,383
1657082299316,-948,-174,295
1657082299356,-844,-60,261
1657082299396,-846,-19,261
1657082299436,-881,-18,279
1657082299476,-932,-44,280
1657082299516,-965,-53,298
1657082299556,-971,-60,282
1657082299596,-970,-37,252
1657082299636,-971,-13,254
1657082299676,-1015,-32,284
1657082299716,-1027,-45,278
1657082299756,-1010,-16,245
1657082299796,-1051,-35,236
1657082299836,-1063,-7,235
1657082299876,-1039,38,130
1657082299916,-1091,-3,261
1657082299956,-1059,-116,333
1657082299996,-1031,-157,335
1657082300036,-1023,-115,267
1657082300076,-964,-12,217
1657082300116,-990,-40,298
1657082300156,-995,-65,389
1657082300196,-994,-82,398
1657082300236,-973,-80,348
1657082300276,-882,13,270
1657082300316,-870,24,322
1657082300356,-889,-12,344
1657082300396,-896,-30,354
1657082300436,-910,-18,382
1657082300476,-994,-35,346
1657082300516,-1007,-7,395
1657082300556,-976,35,368
1657082300596,-1014,27,377
1657082300636,-1013,24,329
1657082300676,-1029,-5,350
1657082300716,-1025,-12,356
1657082300756,-1023,-42,370
1657082300796,-1033,-101,386
1657082300836,-1019,-93,378
1657082300876,-1020,-98,346
1657082300916,-995,-161,340
1657082300956,-972,-194,245
1657082300996,-948,-163,228
1657082301036,-926,-122,232
1657082301076,-960,-112,241
1657082301116,-944,-69,213
1657082301156,-933,-47,225
1657082301196,-923,-50,205
1657082301236,-970,-58,202
1657082301276,-975,-32,220
1657082301316,-983,-28,232
1657082301356,-1001,11,209
1657082301396,-1003,54,268
1657082301436,-1009,53,304
1657082301476,-1029,42,318
1657082301516,-1045,27,320
1657082301556,-1019,70,303
1657082301596,-1067,33,340
1657082301636,-1085,-31,351
1657082301676,-1087,-73,389
1657082301716,-1020,-110,358
1657082301756,-1002,-127,397
1657082301796,-949,-100,387
1657082301836,-870,-51,390
1657082301876,-915,-107,416
1657082301916,-983,-177,365
1657082301956,-959,-102,328
1657082301996,-878,7,273
1657082302036,-867,26,274
1657082302076,-893,-15,329
1657082302116,-949,-74,405
1657082302156,-1021,-82,391
1657082302196,-976,-47,326
1657082302236,-971,-12,303
1657082302276,-973,10,283
1657082302316,-983,38,294
1657082302356,-1020,24,308
1657082302396,-1044,10,311
1657082302436,-1040,29,294
1657082302476,-1030,13,290
1657082302516,-1054,-6,322
1657082302556,-1073,-44,339
1657082302596,-1016,-88,368
1657082302636,-961,-102,363
1657082302676,-929,-126,319
1657082302716,-1008,-183,328
1657082302756,-1034,-230,361
1657082302796,-907,-131,243
1657082302836,-916,-70,221
1657082302876,-921,-65,221
1657082302916,-913,-44,230
1657082302956,-932,-46,217
1657082302996,-935,-21,216
1657082303036,-963,-30,275
1657082303076,-1041,-92,301
1657082303116,-1004,-40,269
1657082303156,-958,27,269
1657082303196,-1005,-2,366
1657082303236,-1008,36,369
1657082303276,-1102,-52,450
1657082303316,-1110,-233,499
1657082303356,-958,-201,437
1657082303396,-851,-143,377
1657082303436,-754,-82,342
1657082303476,-804,-25,472
1657082303516,-938,-79,527
1657082303556,-911,-60,572
1657082303596,-898,-65,541
1657082303636,-815,-21,460
1657082303676,-863,0,408
1657082303716,-878,10,347
1657082303756,-964,-76,342
1657082303796,-1162,-244,402
1657082303836,-1115,-284,306
1657082303876,-941,-164,184
1657082303916,-922,-86,177
1657082303956,-983,-112,174
1657082303996,-1056,-169,154
1657082304036,-1171,-310,124
1657082304076,-1171,-378,150
1657082304116,-1203,-455,271
1657082304156,-1123,-544,250
1657082304196,-883,-463,149
1657082304236,-765,-414,109
1657082304276,-774,-423,115
1657082304316,-788,-423,168
1657082304356,-856,-426,255
1657082304396,-894,-424,259
1657082304436,-921,-399,248
1657082304476,-876,-374,212
1657082304516,-903,-331,224
1657082304556,-902,-293,202
1657082304596,-891,-236,191
1657082304636,-903,-179,183
1657082304676,-970,-142,267
1657082304716,-1045,-134,294
1657082304756,-1076,-65,333
1657082304796,-1087,-4,323
1657082304836,-1055,-9,361
1657082304876,-1220,4,534
1657082304916,-1080,-15,528
1657082304956,-919,45,488
1657082304996,-827,99,453
1657082305036,-876,126,522
1657082305076,-1010,7,670
1657082305116,-939,-112,587
1657082305156,-752,-100,443
1657082305196,-658,-104,336
1657082305236,-652,-142,286
1657082305276,-708,-251,321
1657082305316,-753,-344,311
1657082305356,-878,-459,297
1657082305396,-935,-469,302
1657082305436,-1030,-561,393
1657082305476,-1042,-568,419
1657082305516,-1017,-532,368
1657082305556,-1001,-573,271
1657082305596,-955,-659,270
1657082305636,-986,-754,419
1657082305676,-973,-838,489
1657082305716,-819,-699,380
1657082305756,-633,-513,226
1657082305796,-584,-408,193
1657082305836,-646,-438,228
1657082305876,-669,-456,251
1657082305916,-708,-506,265
1657082305956,-743,-543,261
1657082305996,-804,-574,277
1657082306036,-865,-520,274
1657082306076,-876,-449,253
1657082306116,-882,-432,276
1657082306156,-935,-438,268
1657082306196,-964,-455,298
1657082306236,-1020,-416,340
1657082306276,-1088,-282,421
1657082306316,-1156,-308,469
1657082306356,-1066,-302,424
1657082306396,-1031,-367,480
1657082306436,-964,-386,448
1657082306476,-985,-423,467
1657082306516,-829,-342,358
1657082306556,-815,-213,371
1657082306596,-761,-138,369
1657082306636,-806,-112,444
1657082306676,-873,-150,458
1657082306716,-895,-236,405
1657082306756,-856,-240,338
1657082306796,-828,-223,320
1657082306836,-842,-178,306
1657082306876,-881,-172,292
1657082306916,-905,-155,289
1657082306956,-1026,-182,248
1657082306996,-1015,-179,339
1657082307036,-968,-219,341
1657082307076,-1027,-260,329
1657082307116,-1056,-263,338
1657082307156,-1067,-332,352
1657082307196,-1132,-432,356
1657082307236,-1179,-519,349
1657082307276,-985,-401,217
1657082307316,-885,-339,161
1657082307356,-825,-285,150
1657082307396,-868,-241,145
1657082307436,-866,-185,136
1657082307476,-897,-165,108
1657082307516,-949,-142,139
1657082307556,-955,-95,100
1657082307596,-965,-13,172
1657082307636,-1035,-68,47
1657082307676,-1021,-100,308
1657082307716,-1027,-33,126
1657082307756,-1093,-71,126
1657082307796,-1076,-40,108
1657082307836,-1056,-8,117
1657082307876,-1040,15,162
1657082307916,-1027,46,204
1657082307956,-1049,20,320
1657082307996,-1041,-18,389
1657082308036,-1074,-108,436
1657082308076,-989,-114,378
1657082308116,-946,-86,290
1657082308156,-906,-19,300
1657082308196,-885,-5,326
1657082308236,-907,-15,354
1657082308276,-999,-79,323
1657082308316,-973,-35,255
1657082308356,-898,39,223
1657082308396,-882,50,205
1657082308436,-922,31,179
1657082308476,-999,-5,209
1657082308516,-1029,-12,216
1657082308556,-1058,-58,277
1657082308596,-1105,-129,311
1657082308636,-1125,-138,367
1657082308676,-1186,-279,441
1657082308716,-1156,-367,352
1657082308756,-1057,-302,346
1657082308796,-953,-236,246
1657082308836,-843,-226,245
1657082308876,-840,-234,287
1657082308916,-883,-257,283
1657082308956,-890,-201,237
1657082308996,-885,-182,254
1657082309036,-895,-132,214
1657082309076,-892,-113,286
1657082309116,-930,-150,333
1657082309156,-969,-115,334
1657082309196,-1011,-122,351
1657082309236,-944,-98,375
1657082309276,-963,-107,400
1657082309316,-996,-94,397
1657082309356,-1024,-78,451
1657082309396,-1019,-87,498
1657082309436,-1070,-257,625
1657082309476,-981,-247,458
1657082309516,-861,-115,377
1657082309556,-748,-25,392
1657082309596,-790,-55,526
1657082309636,-909,-172,587
1657082309676,-962,-227,543
1657082309716,-834,-123,433
1657082309756,-772,-76,412
1657082309796,-827,-96,387
1657082309836,-892,-135,378
1657082309876,-963,-136,319
1657082309916,-903,-78,327
1657082309956,-1038,-141,214
1657082309996,-1078,-178,213
1657082310036,-1151,-236,235
1657082310076,-1185,-228,148
1657082310116,-1163,-235,176
1657082310156,-1088,-217,137
1657082310196,-984,-198,151
1657082310236,-911,-205,213
1657082310276,-922,-174,255
1657082310316,-1014,-190,96
1657082310356,-1067,-273,178
1657082310396,-986,-193,102
1657082310436,-984,-153,123
1657082310476,-960,-103,173
1657082310516,-941,-54,294
1657082310556,-948,-20,226
1657082310596,-978,-15,264
1657082310636,-985,-9,287
1657082310676,-1002,10,312
1657082310716,-1041,-1,322
1657082310756,-1041,34,321
1657082310796,-1028,22,311
1657082310836,-1009,91,299
1657082310876,-1012,161,351
1657082310916,-1100,2,366
1657082310956,-1063,-96,258
1657082310996,-919,-42,191
1657082311036,-848,23,253
1657082311076,-875,49,301
1657082311116,-922,77,287
1657082311156,-986,-4,355
1657082311196,-991,-24,316
1657082311236,-920,41,267
1657082311276,-945,65,306
1657082311316,-976,36,387
1657082311356,-1004,46,333
1657082311396,-999,60,312
1657082311436,-992,75,255
1657082311476,-1014,93,245
1657082311516,-1044,80,231
1657082311556,-1065,56,231
1657082311596,-1071,36,198
1657082311636,-1069,20,163
1657082311676,-1065,10,135
1657082311716,-1061,-39,141
1657082311756,-1046,-65,124
1657082311796,-1040,-99,158
1657082311836,-1041,-124,148
1657082311876,-1032,-143,97
1657082311916,-950,-75,79
1657082311956,-899,-22,95
1657082311996,-838,106,114
1657082312036,-963,46,167
1657082312076,-1069,-96,136
1657082312116,-1052,-57,132
1657082312156,-1058,-19,169
1657082312196,-1024,40,153
1657082312236,-1096,4,194
1657082312276,-1163,-54,268
1657082312316,-1179,-8,296
1657082312356,-1061,158,249
1657082312396,-1102,85,230
1657082312436,-990,46,123
1657082312476,-874,66,171
1657082312516,-827,168,282
1657082312556,-901,215,305
1657082312596,-1067,101,274
1657082312636,-1138,50,186
1657082312676,-1072,88,131
1657082312716,-1013,219,89
1657082312756,-979,212,78
1657082312796,-969,199,55
1657082312836,-991,237,65
1657082312876,-998,269,83
1657082312916,-1038,336,105
1657082312956,-1118,296,129
1657082312996,-1089,396,127
1657082313036,-1099,412,109
1657082313076,-1027,412,31
1657082313116,-929,430,6
1657082313156,-914,365,-7
1657082313196,-851,360,-29
1657082313236,-835,330,-59
1657082313276,-820,360,-117
1657082313316,-888,375,-111
1657082313356,-877,411,-108
1657082313396,-840,494,-106
1657082313436,-766,550,-108
1657082313476,-757,649,-85
1657082313516,-810,579,-110
1657082313556,-895,563,-84
1657082313596,-924,503,-72
1657082313636,-940,563,-28
1657082313676,-899,579,3
1657082313716,-899,633,58
1657082313756,-971,584,108
1657082313796,-973,534,69
1657082313836,-907,466,34
1657082313876,-774,509,28
1657082313916,-733,565,83
1657082313956,-793,512,83
1657082313996,-778,500,39
1657082314036,-877,437,37
1657082314076,-830,517,18
1657082314116,-845,534,2
1657082314156,-849,560,-12
1657082314196,-898,565,-42
1657082314236,-935,541,-41
1657082314276,-942,553,0
1657082314316,-930,546,31
1657082314356,-974,575,60
1657082314396,-1019,523,34
1657082314436,-1012,524,-55
1657082314476,-943,515,-101
1657082314516,-934,425,-79
1657082314556,-989,337,-87
1657082314596,-1004,265,-97
1657082314636,-924,293,-116
1657082314676,-934,324,-112
1657082314716,-924,355,-122
1657082314756,-909,391,-147
1657082314796,-919,410,-146
1657082314836,-911,424,-161
1657082314876,-924,432,-161
1657082314916,-910,435,-163
1657082314956,-921,433,-174
1657082314996,-899,451,-147
1657082315036,-932,481,-101
1657082315076,-925,565,-48
1657082315116,-942,617,40
1657082315156,-1030,544,77
1657082315196,-1051,479,88
1657082315236,-973,521,117
1657082315276,-850,571,150
1657082315316,-766,500,156
1657082315356,-775,401,115
1657082315396,-812,401,66
1657082315436,-828,476,34
1657082315476,-852,498,22
1657082315516,-878,478,32
1657082315556,-896,458,44
1657082315596,-853,509,4
1657082315636,-855,521,-14
1657082315676,-934,503,-36
1657082315716,-1081,449,14
1657082315756,-1116,440,56
1657082315796,-1096,452,71
1657082315836,-1055,401,30
1657082315876,-1012,304,21
1657082315916,-1007,269,29
1657082315956,-988,226,8
1657082315996,-955,246,-26
1657082316036,-942,314,-6
1657082316076,-907,368,-4
1657082316116,-936,384,4
1657082316156,-949,386,1
1657082316196,-931,403,-15
1657082316236,-917,420,-38
1657082316276,-886,448,-80
1657082316316,-900,451,-78
1657082316356,-951,423,-75
1657082316396,-942,448,-98
1657082316436,-955,514,-53
1657082316476,-992,524,40
1657082316516,-1066,409,121
1657082316556,-1065,354,190
1657082316596,-990,379,185
1657082316636,-920,403,175
1657082316676,-925,350,105
1657082316716,-934,301,34
1657082316756,-902,327,-36
1657082316796,-857,428,-60
1657082316836,-880,455,-58
1657082316876,-912,444,-67
1657082316916,-911,447,-59
1657082316956,-900,468,-44
1657082316996,-904,462,-18
1657082317036,-945,440,23
1657082317076,-1010,402,81
1657082317116,-1020,432,52
1657082317156,-968,453,14
1657082317196,-991,418,19
1657082317236,-986,317,40
1657082317276,-1031,290,54
1657082317316,-1010,242,90
1657082317356,-996,215,110
1657082317396,-987,160,118
1657082317436,-969,189,134
1657082317476,-974,199,119
1657082317516,-895,216,47
1657082317556,-879,208,92
1657082317596,-884,206,89
1657082317636,-1020,148,103
1657082317676,-1019,209,32
1657082317716,-1033,261,-51
1657082317756,-1084,225,11
1657082317796,-992,287,61
1657082317836,-1103,281,62
1657082317876,-1188,243,54
1657082317916,-1228,106,184
1657082317956,-1102,59,169
1657082317996,-905,102,184
1657082318036,-846,172,199
1657082318076,-912,96,183
1657082318116,-993,-21,220
1657082318156,-960,3,173
1657082318196,-927,73,186
1657082318236,-989,100,190
1657082318276,-1048,82,197
1657082318316,-1067,87,181
1657082318356,-1095,72,244
1657082318396,-1075,40,224
1657082318436,-1094,-3,254
1657082318476,-1111,10,193
1657082318516,-1086,86,135
1657082318556,-1085,129,99
1657082318596,-1086,102,97
1657082318636,-1040,68,110
1657082318676,-1081,28,167
1657082318716,-1050,22,174
1657082318756,-958,60,116
1657082318796,-1009,15,94
1657082318836,-1010,-12,77
1657082318876,-976,36,41
1657082318916,-964,90,20
1657082318956,-943,131,79
1657082318996,-924,132,91
1657082319036,-994,163,102
1657082319076,-961,161,113
1657082319116,-1064,106,135
1657082319156,-1182,56,186
1657082319196,-1151,150,135
1657082319236,-1109,234,155
1657082319276,-1145,151,205
1657082319316,-1070,98,127
1657082319356,-976,146,129
1657082319396,-876,213,137
1657082319436,-795,254,155
1657082319476,-888,214,213
1657082319516,-1010,155,194
1657082319556,-997,112,162
1657082319596,-910,152,127
1657082319636,-948,196,157
1657082319676,-993,191,142
1657082319716,-1012,180,121
1657082319756,-1036,209,138
1657082319796,-1075,210,162
1657082319836,-1064,197,174
1657082319876,-1057,149,236
1657082319916,-983,168,298
1657082319956,-1097,40,184
1657082319996,-955,-4,106
1657082320036,-1050,-125,203
1657082320076,-1140,-207,247
1657082320116,-880,-87,157
1657082320156,-995,-171,300
1657082320196,-1043,-223,321
1657082320236,-1072,-181,213
1657082320276,-917,-78,39
1657082320316,-890,16,42
1657082320356,-1054,-22,137
1657082320396,-1080,-129,142
1657082320436,-1003,-57,-7
1657082320476,-1027,-1,13
1657082320516,-1050,16,55
1657082320556,-1037,46,56
1657082320596,-1046,72,68
1657082320636,-1041,51,47
1657082320676,-1041,58,67
1657082320716,-1034,90,41
1657082320756,-1026,125,43
1657082320796,-1027,179,40
1657082320836,-1116,143,151
1657082320876,-1235,-11,228
1657082320916,-1127,-37,140
1657082320956,-1037,96,128
1657082320996,-1034,178,230
1657082321036,-1069,139,240
1657082321076,-1052,121,210
1657082321116,-994,145,159
1657082321156,-888,244,128
1657082321196,-836,252,96
1657082321236,-858,264,87
1657082321276,-882,305,61
1657082321316,-926,292,87
1657082321356,-879,314,75
1657082321396,-892,348,108
1657082321436,-971,330,159
1657082321476,-1089,294,117
1657082321516,-1193,283,154
1657082321556,-1118,326,95
1657082321596,-1123,281,99
1657082321636,-1123,204,83
1657082321676,-999,170,69
1657082321716,-877,176,65
1657082321756,-878,176,63
1657082321796,-844,255,145
1657082321836,-655,468,-250
1657082321876,-715,507,-106
1657082321916,-912,274,-81
1657082321956,-946,220,-12
1657082321996,-1049,221,-20
1657082322036,-1106,211,19
1657082322076,-1013,288,-109
1657082322116,-918,253,-50
1657082322156,-999,290,204
1657082322196,-1010,371,-55
1657082322236,-1392,-233,-39
1657082322276,-1038,406,0
1657082322316,-1035,422,10
1657082322356,-989,455,66
1657082322396,-1033,358,101
1657082322436,-1086,231,157
1657082322476,-1034,230,171
1657082322516,-983,248,176
1657082322556,-921,280,231
1657082322596,-1010,220,322
1657082322636,-1023,131,275
1657082322676,-941,145,217
1657082322716,-818,240,182
1657082322756,-828,260,162
1657082322796,-945,250,176
1657082322836,-967,243,202
1657082322876,-976,259,208
1657082322916,-963,261,262
1657082322956,-954,234,295
1657082322996,-1126,163,227
1657082323036,-1185,136,218
1657082323076,-1057,147,217
1657082323116,-964,209,190
1657082323156,-1057,107,231
1657082323196,-1112,35,240
1657082323236,-1170,-38,202
1657082323276,-1040,19,112
1657082323316,-974,18,69
1657082323356,-944,45,61
1657082323396,-969,38,41
1657082323436,-974,68,70
1657082323476,-948,79,115
1657082323516,-936,123,125
1657082323556,-945,127,109
1657082323596,-967,133,64
1657082323636,-1031,140,65
1657082323676,-1037,191,113
1657082323716,-1380,-102,288
1657082323756,-1203,101,204
1657082323796,-1086,243,142
1657082323836,-1032,291,219
1657082323876,-971,272,253
1657082323916,-1024,129,298
1657082323956,-1113,58,324
1657082323996,-1056,56,269
1657082324036,-884,142,308
1657082324076,-909,102,379
1657082324116,-984,16,375
1657082324156,-954,-12,334
1657082324196,-837,75,243
1657082324236,-819,158,241
1657082324276,-904,144,262
1657082324316,-912,144,270
1657082324356,-1007,113,372
1657082324396,-982,129,367
1657082324436,-974,130,367
1657082324476,-997,89,355
1657082324516,-1034,18,396
1657082324556,-1091,0,354
1657082324596,-1055,41,343
1657082324636,-1088,9,348
1657082324676,-1101,-26,314
1657082324716,-1116,-85,345
1657082324756,-1064,-143,328
1657082324796,-1061,-176,345
1657082324836,-1084,-209,313
1657082324876,-946,-86,239
1657082324916,-908,-35,232
1657082324956,-853,32,209
1657082324996,-823,67,184
1657082325036,-919,66,242
1657082325076,-945,79,229
1657082325116,-936,92,220
1657082325156,-973,125,246
1657082325196,-985,103,258
1657082325236,-1068,52,307
1657082325276,-964,176,247
1657082325316,-983,247,332
1657082325356,-1159,64,483
1657082325396,-1118,19,441
1657082325436,-1013,72,360
1657082325476,-886,107,385
1657082325516,-930,36,456
1657082325556,-920,-26,428
1657082325596,-860,-8,340
1657082325636,-811,98,316
1657082325676,-837,145,349
1657082325716,-895,147,357
1657082325756,-922,150,348
1657082325796,-924,193,327
1657082325836,-970,150,365
1657082325876,-994,108,366
1657082325916,-992,123,378
1657082325956,-1030,138,372
1657082325996,-1047,143,336
1657082326036,-1074,133,336
1657082326076,-1074,100,324
1657082326116,-1056,104,284
1657082326156,-1086,53,281
1657082326196,-1113,-11,247
1657082326236,-1061,-15,205
1657082326276,-1000,4,197
1657082326316,-957,51,217
1657082326356,-910,93,200
1657082326396,-894,138,190
1657082326436,-905,134,183
1657082326476,-920,144,200
1657082326516,-954,146,195
1657082326556,-992,177,179
1657082326596,-989,226,172
1657082326636,-994,231,207
1657082326676,-1024,196,253
1657082326716,-1017,220,275
1657082326756,-950,291,283
1657082326796,-1043,216,359
1657082326836,-1048,151,392
1657082326876,-1102,135,405
1657082326916,-1045,85,370
1657082326956,-896,125,346
1657082326996,-951,60,429
1657082327036,-913,23,398
1657082327076,-877,34,335
1657082327116,-811,129,349
1657082327156,-849,119,444
1657082327196,-871,129,390
1657082327236,-867,195,369
1657082327276,-905,240,287
1657082327316,-937,175,377
1657082327356,-1014,98,427
1657082327396,-1055,74,401
1657082327436,-1050,152,330
1657082327476,-1097,144,356
1657082327516,-1117,80,321
1657082327556,-1071,43,301
1657082327596,-1074,-42,263
1657082327636,-1061,-83,251
1657082327676,-1003,-107,232
1657082327716,-947,-54,238
1657082327756,-922,-9,256
1657082327796,-901,50,241
1657082327836,-919,64,230
1657082327876,-959,51,258
1657082327916,-976,54,252
1657082327956,-973,66,238
1657082327996,-988,71,215
1657082328036,-1009,108,181
1657082328076,-1012,152,203
1657082328116,-1010,132,249
1657082328156,-1005,127,243
1657082328196,-1004,128,257
1657082328236,-995,184,229
1657082328276,-1020,184,291
1657082328316,-1050,89,333
1657082328356,-1115,-1,420
1657082328396,-1086,-20,404
1657082328436,-1018,23,362
1657082328476,-1011,25,363
1657082328516,-984,-23,410
1657082328556,-881,-8,344
1657082328596,-827,37,269
1657082328636,-828,84,244
1657082328676,-874,80,288
1657082328716,-913,47,296
1657082328756,-924,102,262
1657082328796,-973,130,265
1657082328836,-991,133,291
1657082328876,-1016,133,304
1657082328916,-1109,59,356
1657082328956,-1139,27,300
1657082328996,-1104,91,195
1657082329036,-1075,112,174
1657082329076,-1104,0,181
1657082329116,-1157,-89,219
1657082329156,-1149,-158,217
1657082329196,-983,-99,104
1657082329236,-896,-87,109
1657082329276,-893,-80,171
1657082329316,-931,-47,176
1657082329356,-965,-16,173
1657082329396,-947,20,180
1657082329436,-927,38,157
1657082329476,-952,11,124
1657082329516,-976,25,93
1657082329556,-992,73,115
1657082329596,-1038,69,176
1657082329636,-1063,42,231
1657082329676,-1106,50,241
1657082329716,-1103,100,254
1657082329756,-1094,62,319
1657082329796,-1205,-128,424
1657082329836,-1192,-199,368
1657082329876,-980,-58,194
1657082329916,-830,101,158
1657082329956,-906,34,218
1657082329996,-1029,-63,286
1657082330036,-1000,-59,299
1657082330076,-891,38,259
1657082330116,-840,108,240
1657082330156,-883,108,257
1657082330196,-968,59,254
1657082330236,-997,71,231
1657082330276,-1026,59,219
1657082330316,-1023,42,212
1657082330356,-1022,60,188
1657082330396,-1058,66,127
1657082330436,-1084,61,112
1657082330476,-1078,12,90
1657082330516,-1180,-48,67
1657082330556,-1187,-28,72
1657082330596,-1115,-50,103
1657082330636,-1054,-91,120
1657082330676,-1008,-106,100
1657082330716,-1025,-139,71
1657082330756,-1027,-120,38
1657082330796,-989,-64,34
1657082330836,-957,-23,106
1657082330876,-898,-8,143
1657082330916,-869,13,169
1657082330956,-917,31,142
1657082330996,-969,33,101
1657082331036,-1073,-9,110
1657082331076,-1066,33,111
1657082331116,-1069,42,153
1657082331156,-1044,33,216
1657082331196,-1006,88,159
1657082331236,-1029,153,104
1657082331276,-1117,58,177
1657082331316,-1169,-40,246
1657082331356,-1093,-56,304
1657082331396,-1111,-50,293
1657082331436,-1015,-55,295
1657082331476,-943,-14,313
1657082331516,-990,-64,387
1657082331556,-1009,-115,364
1657082331596,-892,-31,246
1657082331636,-842,60,182
1657082331676,-838,62,167
1657082331716,-947,-15,260
1657082331756,-955,-33,211
1657082331796,-923,53,134
1657082331836,-994,41,231
1657082331876,-1019,20,221
1657082331916,-1109,-19,311
1657082331956,-1172,-106,234
1657082331996,-1264,-71,286
1657082332036,-1108,-97,115
1657082332076,-1157,-149,166
1657082332116,-1196,-228,74
1657082332156,-1069,-186,56
1657082332196,-897,-91,81
1657082332236,-917,-108,77
1657082332276,-948,-82,48
1657082332316,-894,-2,24
1657082332356,-910,14,58
1657082332396,-922,9,61
1657082332436,-988,-5,37
1657082332476,-1046,-6,79
1657082332516,-1018,25,89
1657082332556,-985,61,129
1657082332596,-1043,74,156
1657082332636,-1019,91,169
1657082332676,-1041,74,228
1657082332716,-1016,81,198
1657082332756,-1036,97,75
1657082332796,-1120,39,163
1657082332836,-1223,-59,216
1657082332876,-1147,-44,300
1657082332916,-1056,-65,273
1657082332956,-888,-36,315
1657082332996,-965,-32,337
1657082333036,-941,-28,265
1657082333076,-949,-40,233
1657082333116,-903,36,213
1657082333156,-867,76,233
1657082333196,-914,61,248
1657082333236,-960,49,249
1657082333276,-1014,36,236
1657082333316,-1035,55,233
1657082333356,-1034,74,231
1657082333396,-1046,35,306
1657082333436,-1033,-14,314
1657082333476,-1090,-12,221
1657082333516,-1088,46,170
1657082333556,-1101,55,204
1657082333596,-1133,-83,253
1657082333636,-1187,-159,240
1657082333676,-1127,-211,133
1657082333716,-1039,-168,101
1657082333756,-905,-91,61
1657082333796,-921,-75,110
1657082333836,-928,-54,141
1657082333876,-918,-12,143
1657082333916,-919,10,155
1657082333956,-958,15,165
1657082333996,-1013,-6,113
1657082334036,-1068,-12,83
1657082334076,-1020,35,35
1657082334116,-939,113,36
1657082334156,-1000,83,67
1657082334196,-1082,33,155
1657082334236,-1085,30,143
1657082334276,-1032,52,134
1657082334316,-1015,60,79
1657082334356,-1009,98,87
1657082334396,-1062,66,124
1657082334436,-1096,12,163
1657082334476,-1097,-44,159
1657082334516,-1056,7,201
1657082334556,-1070,-31,253
1657082334596,-965,7,256
1657082334636,-974,42,253
1657082334676,-1024,-29,300
1657082334716,-1044,-69,246
1657082334756,-889,19,212
1657082334796,-860,80,173
1657082334836,-903,108,173
1657082334876,-993,52,211
1657082334916,-990,65,163
1657082334956,-995,67,164
1657082334996,-1087,12,223
1657082335036,-1121,-35,228
1657082335076,-1124,2,136
1657082335116,-1138,-30,155
1657082335156,-1212,-113,203
1657082335196,-1239,-180,129
1657082335236,-1099,-190,98
1657082335276,-931,-179,55
1657082335316,-880,-176,77
1657082335356,-915,-187,96
1657082335396,-875,-105,62
1657082335436,-848,-41,49
1657082335476,-907,-43,100
1657082335516,-975,-77,65
1657082335556,-1072,-99,70
1657082335596,-1081,-72,35
1657082335636,-1001,6,31
1657082335676,-989,15,121
1657082335716,-1065,-56,195
1657082335756,-1094,-60,182
1657082335796,-1078,-12,157
1657082335836,-1012,54,130
1657082335876,-1028,52,132
1657082335916,-1224,-159,246
1657082335956,-1231,-197,261
1657082335996,-1008,-77,185
1657082336036,-909,-37,229
1657082336076,-1023,-102,295
1657082336116,-1026,-136,306
1657082336156,-890,-75,206
1657082336196,-820,3,124
1657082336236,-855,41,130
1657082336276,-956,5,197
1657082336316,-1018,-25,198
1657082336356,-1043,1,201
1657082336396,-1027,28,199
1657082336436,-1041,39,237
1657082336476,-1118,-32,258
1657082336516,-1124,-59,236
1657082336556,-1131,-99,222
1657082336596,-1097,-56,133
1657082336636,-1034,-32,171
1657082336676,-1042,-112,240
1657082336716,-1036,-176,199
1657082336756,-1063,-253,146
1657082336796,-985,-197,80
1657082336836,-907,-93,46
1657082336876,-921,-37,81
1657082336916,-884,-27,109
1657082336956,-886,-35,113
1657082336996,-970,-70,131
1657082337036,-1019,-64,109
1657082337076,-1022,-12,87
1657082337116,-1023,25,100
1657082337156,-1056,14,193
1657082337196,-1101,-9,244
1657082337236,-1087,34,254
1657082337276,-1076,60,288
1657082337316,-1219,-159,350
1657082337356,-1109,-144,307
1657082337396,-1009,-99,240
1657082337436,-908,-28,213
1657082337476,-895,-43,296
1657082337516,-1007,-142,349
1657082337556,-1019,-158,287
1657082337596,-881,-55,214
1657082337636,-802,35,184
1657082337676,-886,21,223
1657082337716,-965,-17,231
1657082337756,-1019,-25,249
1657082337796,-1013,17,237
1657082337836,-999,45,258
1657082337876,-1046,8,277
1657082337916,-1121,-74,294
1657082337956,-1089,-43,223
1657082337996,-1022,36,164
1657082338036,-1062,29,149
1657082338076,-1131,-98,197
1657082338116,-1184,-204,203
1657082338156,-1134,-236,184
1657082338196,-977,-218,112
1657082338236,-943,-203,73
1657082338276,-940,-203,66
1657082338316,-930,-135,60
1657082338356,-963,-70,60
1657082338396,-966,-60,109
1657082338436,-936,-56,126
1657082338476,-940,-70,70
1657082338516,-989,-62,48
1657082338556,-1036,-32,59
1657082338596,-1035,1,85
1657082338636,-1000,19,93
1657082338676,-1025,-27,130
1657082338716,-1074,-59,147
1657082338756,-1077,0,147
1657082338796,-1154,-39,219
1657082338836,-1269,-201,280
1657082338876,-1192,-184,241
1657082338916,-1011,-92,211
1657082338956,-825,-9,248
1657082338996,-884,-67,306
1657082339036,-981,-147,275
1657082339076,-971,-131,199
1657082339116,-862,-24,165
1657082339156,-873,0,196
1657082339196,-915,0,208
1657082339236,-964,20,229
1657082339276,-990,36,252
1657082339316,-1021,35,281
1657082339356,-1044,16,309
1657082339396,-1093,-52,336
1657082339436,-1141,-113,301
1657082339476,-1039,-19,212
1657082339516,-1011,5,151
1657082339556,-1088,-65,198
1657082339596,-1101,-132,232
1657082339636,-1169,-157,227
1657082339676,-1023,-185,214
1657082339716,-969,-210,154
1657082339756,-980,-205,139
1657082339796,-983,-154,134
1657082339836,-962,-110,125
1657082339876,-888,-36,109
1657082339916,-874,-21,133
1657082339956,-907,-49,128
1657082339996,-964,-28,88
1657082340036,-1021,-1,82
1657082340076,-1064,-52,131
1657082340116,-1106,-113,135
1657082340156,-1089,-82,128
1657082340196,-1020,-20,121
1657082340236,-963,64,147
1657082340276,-1040,41,212
1657082340316,-1193,-130,263
1657082340356,-1180,-166,254
1657082340396,-1076,-149,247
1657082340436,-969,-86,217
1657082340476,-900,-14,232
1657082340516,-991,-104,313
1657082340556,-1077,-178,317
1657082340596,-989,-134,242
1657082340636,-836,-4,158
1657082340676,-846,29,177
1657082340716,-939,-15,206
1657082340756,-996,-5,197
1657082340796,-991,28,204
1657082340836,-945,40,152
1657082340876,-1009,24,193
1657082340916,-1091,-53,205
1657082340956,-1133,-63,157
1657082340996,-1108,-32,90
1657082341036,-1115,-55,93
1657082341076,-1151,-117,130
1657082341116,-1158,-140,157
1657082341156,-1183,-184,140
1657082341196,-1024,-186,87
1657082341236,-972,-165,80
1657082341276,-973,-181,83
1657082341316,-961,-144,15
1657082341356,-942,-112,0
1657082341396,-938,-62,-1
1657082341436,-914,-41,-34
1657082341476,-941,-46,-2
1657082341516,-973,-60,-8
1657082341556,-1006,-35,-50
1657082341596,-1090,-68,-21
1657082341636,-1055,-94,-21
1657082341676,-1115,-177,35
1657082341716,-1094,-181,98
1657082341756,-1057,-135,143
1657082341796,-1020,-51,195
1657082341836,-1093,-56,293
1657082341876,-1163,-86,314
1657082341916,-1032,2,260
1657082341956,-934,24,305
1657082341996,-1018,-57,352
1657082342036,-998,-2,251
1657082342076,-1015,36,237
1657082342116,-921,80,216
1657082342156,-872,105,234
1657082342196,-937,99,278
1657082342236,-953,112,336
1657082342276,-970,63,432
1657082342316,-1081,-58,502
1657082342356,-1066,-108,445
1657082342396,-1001,-95,370
1657082342436,-1042,-167,292
1657082342476,-1073,-218,226
1657082342516,-1118,-278,204
1657082342556,-1069,-235,58
1657082342596,-965,-164,60
1657082342636,-994,-198,115
1657082342676,-1095,-231,108
1657082342716,-1135,-211,106
1657082342756,-1030,-126,113
1657082342796,-914,-61,61
1657082342836,-871,-49,54
1657082342876,-886,-62,36
1657082342916,-931,-86,76
1657082342956,-1081,-151,170
1657082342996,-1136,-136,188
1657082343036,-1151,-77,188
1657082343076,-1206,-133,303
1657082343116,-1105,-113,323
1657082343156,-955,-4,289
1657082343196,-1013,-42,396
1657082343236,-1123,-156,390
1657082343276,-994,-94,269
1657082343316,-864,31,158
1657082343356,-803,98,156
1657082343396,-874,73,256
1657082343436,-942,4,292
1657082343476,-954,17,292
1657082343516,-943,33,241
1657082343556,-934,66,244
1657082343596,-1054,-5,200
1657082343636,-1155,-78,265
1657082343676,-1146,0,138
1657082343716,-1083,13,164
1657082343756,-1067,16,140
1657082343796,-1104,-82,232
1657082343836,-1031,-129,265
1657082343876,-977,-164,331
1657082343916,-963,-169,253
1657082343956,-917,-147,211
1657082343996,-968,-127,160
1657082344036,-996,-86,119
1657082344076,-936,-43,85
1657082344116,-1011,-42,130
1657082344156,-1014,-52,217
1657082344196,-988,-24,188
1657082344236,-999,-18,162
1657082344276,-963,7,113
1657082344316,-1032,-33,138
1657082344356,-1083,-78,215
1657082344396,-1018,-31,154
1657082344436,-1056,32,137
1657082344476,-1071,34,176
1657082344516,-1107,-37,216
1657082344556,-1134,-125,274
1657082344596,-1092,-65,265
1657082344636,-998,-30,272
1657082344676,-911,13,304
1657082344716,-948,0,354
1657082344756,-967,-25,324
1657082344796,-1015,-27,348
1657082344836,-901,57,256
1657082344876,-866,95,223
1657082344916,-914,54,284
1657082344956,-961,0,324
1657082344996,-975,-21,310
1657082345036,-959,10,191
1657082345076,-971,71,154
1657082345116,-1114,20,286
1657082345156,-1154,-62,286
1657082345196,-1219,-55,273
1657082345236,-1093,-15,235
1657082345276,-1061,-23,238
1657082345316,-1088,-111,224
1657082345356,-1075,-145,155
1657082345396,-1014,-145,130
1657082345436,-937,-156,92
1657082345476,-966,-187,125
1657082345516,-971,-154,111
1657082345556,-958,-75,80
1657082345596,-925,-1,70
1657082345636,-940,17,90
1657082345676,-946,2,141
1657082345716,-957,7,48
1657082345756,-1089,0,40
1657082345796,-1076,28,65
1657082345836,-1022,58,140
1657082345876,-1062,9,219
1657082345916,-1064,14,215
1657082345956,-1021,56,174
1657082345996,-1017,65,197
1657082346036,-1001,97,204
1657082346076,-1030,64,248
1657082346116,-1143,-55,319
1657082346156,-1184,-137,370
1657082346196,-1002,-81,327
1657082346236,-879,-20,287
1657082346276,-864,14,293
1657082346316,-902,-26,381
1657082346356,-1010,-75,382
1657082346396,-1030,-91,309
1657082346436,-899,-14,243
1657082346476,-824,75,185
1657082346516,-895,63,191
1657082346556,-989,43,205
1657082346596,-1059,30,247
1657082346636,-1066,-4,258
1657082346676,-1030,3,311
1657082346716,-1058,-27,352
1657082346756,-1034,-27,298
1657082346796,-1041,17,209
1657082346836,-1058,18,138
1657082346876,-1039,-8,169
1657082346916,-1151,-100,157
1657082346956,-1215,-168,200
1657082346996,-1093,-174,126
1657082347036,-889,-109,71
1657082347076,-903,-94,151
1657082347116,-916,-117,23
1657082347156,-877,-66,20
1657082347196,-1111,-58,188
1657082347236,-974,-59,132
1657082347276,-948,-44,96
1657082347316,-1004,-12,21
1657082347356,-1050,8,17
1657082347396,-1069,42,50
1657082347436,-1063,57,87
1657082347476,-1073,41,134
1657082347516,-1002,88,156
1657082347556,-996,112,163
1657082347596,-982,158,128
1657082347636,-990,186,185
1657082347676,-1133,85,371
1657082347716,-1274,-66,338
1657082347756,-1029,6,285
1657082347796,-931,45,253
