timestamp,accel_X,accel_Y,accel_Z
1657078774972,422,793,-514
1657078775012,416,786,-516
1657078775052,426,771,-512
1657078775092,424,787,-517
1657078775132,409,783,-512
1657078775172,416,780,-505
1657078775212,422,791,-512
1657078775252,413,785,-520
1657078775292,414,785,-512
1657078775332,427,779,-509
1657078775372,426,780,-509
1657078775412,416,786,-506
1657078775452,409,795,-527
1657078775492,408,790,-483
1657078775532,434,778,-534
1657078775572,408,791,-500
1657078775612,436,786,-519
1657078775652,414,788,-504
1657078775692,412,789,-515
1657078775732,422,785,-515
1657078775772,420,789,-513
1657078775812,415,786,-512
1657078775852,418,786,-517
1657078775892,419,787,-511
1657078775932,420,792,-505
1657078775972,411,791,-511
1657078776012,404,791,-521
1657078776052,421,787,-503
1657078776092,409,783,-519
1657078776132,409,788,-513
1657078776172,420,792,-509
1657078776212,424,795,-499
1657078776252,417,798,-494
1657078776292,423,784,-524
1657078776332,415,783,-492
1657078776372,432,778,-513
1657078776412,410,794,-500
1657078776452,421,780,-517
1657078776492,429,793,-501
1657078776532,426,780,-506
1657078776572,419,788,-513
1657078776612,419,779,-504
1657078776652,427,793,-523
1657078776692,418,787,-506
1657078776732,424,790,-505
1657078776772,431,785,-498
1657078776812,452,801,-489
1657078776852,434,798,-492
1657078776892,427,800,-497
1657078776932,430,799,-485
1657078776972,440,804,-476
1657078777012,443,801,-464
1657078777052,449,787,-489
1657078777092,436,783,-479
1657078777132,429,779,-493
1657078777172,444,805,-463
1657078777212,486,826,-424
1657078777252,461,938,-436
1657078777292,440,847,-405
1657078777332,436,809,-479
1657078777372,447,755,-471
1657078777412,419,743,-485
1657078777452,453,747,-529
1657078777492,467,721,-514
1657078777532,444,707,-499
1657078777572,450,748,-553
1657078777612,460,684,-484
1657078777652,386,693,-493
1657078777692,399,738,-504
1657078777732,567,764,-548
1657078777772,546,704,-589
1657078777812,394,646,-661
1657078777852,497,854,-763
1657078777892,672,986,-717
1657078777932,667,839,-473
1657078777972,434,534,-575
1657078778012,326,306,-224
1657078778052,257,370,-193
1657078778092,354,843,-616
1657078778132,495,792,-526
1657078778172,731,924,-401
1657078778212,625,942,-546
1657078778252,508,794,-488
1657078778292,656,703,-489
1657078778332,313,1619,-823
1657078778372,101,919,-653
1657078778412,480,1146,-455
1657078778452,441,1232,-690
1657078778492,406,1299,-1056
1657078778532,941,1200,-1015
1657078778572,810,461,-411
1657078778612,954,475,-294
1657078778652,818,2,154
1657078778692,318,-229,-105
1657078778732,321,-39,-278
1657078778772,472,507,-975
1657078778812,524,80,-1112
1657078778852,193,25,-1140
1657078778892,250,109,-1089
1657078778932,116,65,-804
1657078778972,191,171,-1098
1657078779012,484,88,-847
1657078779052,235,159,-1124
1657078779092,330,60,-924
1657078779132,369,95,-913
1657078779172,337,64,-863
1657078779212,276,28,-400
1657078779252,212,981,-199
1657078779292,479,377,-1295
1657078779332,664,264,-1284
1657078779372,331,-10,-719
1657078779412,181,-67,-639
1657078779452,332,-24,-1045
1657078779492,363,-23,-922
1657078779532,439,-21,-948
1657078779572,566,65,-1055
1657078779612,467,-13,-863
1657078779652,352,-86,-848
1657078779692,452,-18,-966
1657078779732,425,-37,-845
1657078779772,384,-35,-797
1657078779812,190,240,188
1657078779852,803,657,-1693
1657078779892,348,488,-1260
1657078779932,489,223,-628
1657078779972,328,107,-841
1657078780012,344,-25,-999
1657078780052,465,46,-953
1657078780092,483,47,-996
1657078780132,393,-10,-904
1657078780172,392,22,-958
1657078780212,388,34,-900
1657078780252,371,43,-953
1657078780292,392,30,-972
1657078780332,374,17,-920
1657078780372,396,28,-914
1657078780412,412,43,-943
1657078780452,320,125,-610
1657078780492,1040,-1428,-2048
1657078780532,346,203,-917
1657078780572,99,116,-856
1657078780612,460,223,-707
1657078780652,379,168,-1025
1657078780692,454,25,-1196
1657078780732,376,69,-970
1657078780772,350,-49,-933
1657078780812,374,-72,-818
1657078780852,370,3,-812
1657078780892,526,74,-951
1657078780932,533,-22,-781
1657078780972,358,70,-827
1657078781012,390,41,-804
1657078781052,464,67,-821
1657078781092,523,226,-710
1657078781132,591,239,-663
1657078781172,605,273,-752
1657078781212,605,398,-870
1657078781252,625,422,-872
1657078781292,742,449,-795
1657078781332,798,518,-813
1657078781372,801,394,-820
1657078781412,1087,525,-849
1657078781452,1271,457,-876
1657078781492,1929,722,-951
1657078781532,2046,454,-532
1657078781572,2046,785,-392
1657078781612,954,494,-116
1657078781652,295,439,-63
1657078781692,28,-18,-83
1657078781732,230,158,-242
1657078781772,-139,-425,-278
1657078781812,338,-282,-514
1657078781852,-34,-499,-699
1657078781892,265,-336,-644
1657078781932,263,-572,-577
1657078781972,486,-533,-502
1657078782012,398,-512,-765
1657078782052,293,-594,-716
1657078782092,202,-637,-707
1657078782132,308,-752,-537
1657078782172,326,-728,-495
1657078782212,-21,-804,-839
1657078782252,-583,-1374,-991
1657078782292,458,-840,-205
1657078782332,745,-655,33
1657078782372,761,-778,-24
1657078782412,768,-807,-380
1657078782452,634,-816,-380
1657078782492,486,-949,-558
1657078782532,498,-830,-442
1657078782572,419,-649,-344
1657078782612,264,-617,-412
1657078782652,159,-512,-464
1657078782692,416,-548,-670
1657078782732,467,-346,-621
1657078782772,562,-349,-637
1657078782812,594,-86,-568
1657078782852,444,-167,-567
1657078782892,315,-69,-451
1657078782932,198,85,-280
1657078782972,498,868,-127
1657078783012,348,848,-38
1657078783052,574,1369,-103
1657078783092,263,1229,27
1657078783132,263,1559,281
1657078783172,378,1947,586
1657078783212,1206,2047,-287
1657078783252,1148,1885,1381
1657078783292,1281,1418,865
1657078783332,512,977,694
1657078783372,236,857,292
1657078783412,235,778,79
1657078783452,260,727,126
1657078783492,335,767,173
1657078783532,354,865,231
1657078783572,439,1015,174
1657078783612,441,1142,212
1657078783652,564,1401,107
1657078783692,635,1352,22
1657078783732,656,1230,126
1657078783772,736,1180,266
1657078783812,942,1189,376
1657078783852,894,950,711
1657078783892,615,834,564
1657078783932,565,560,446
1657078783972,794,477,796
1657078784012,446,356,372
1657078784052,652,242,427
1657078784092,532,293,439
1657078784132,747,351,647
1657078784172,779,110,601
1657078784212,766,-121,477
1657078784252,711,-197,384
1657078784292,659,-228,200
1657078784332,709,-306,331
1657078784372,778,-371,299
1657078784412,884,-311,281
1657078784452,767,-375,281
1657078784492,915,-449,381
1657078784532,998,-424,551
1657078784572,874,-391,455
1657078784612,756,407,18
1657078784652,923,-438,537
1657078784692,802,-543,321
1657078784732,865,-383,242
1657078784772,691,-605,297
1657078784812,806,-468,295
1657078784852,881,-287,182
1657078784892,926,-363,189
1657078784932,895,37,147
1657078784972,972,-774,177
1657078785012,717,-605,37
1657078785052,845,-465,-19
1657078785092,927,-422,-27
1657078785132,905,-376,-38
1657078785172,979,-420,-90
1657078785212,773,-743,-52
1657078785252,995,-742,107
1657078785292,1041,-712,110
1657078785332,870,-606,64
1657078785372,686,-488,-4
1657078785412,679,-327,-57
1657078785452,751,-630,-199
1657078785492,833,-570,-133
1657078785532,977,-673,-86
1657078785572,895,-551,30
1657078785612,887,-267,-102
1657078785652,690,-461,-103
1657078785692,828,-477,-72
1657078785732,877,-481,-23
1657078785772,889,-572,-15
1657078785812,1002,-514,-63
1657078785852,921,-318,-43
1657078785892,806,-428,-13
1657078785932,949,-356,-127
1657078785972,1099,-447,-77
1657078786012,1273,-614,82
1657078786052,1060,-673,188
1657078786092,683,-381,121
1657078786132,666,-679,308
1657078786172,934,-478,178
1657078786212,1016,-491,141
1657078786252,985,-613,79
1657078786292,792,-346,13
1657078786332,870,-266,-60
1657078786372,872,-472,121
1657078786412,944,-462,39
1657078786452,970,-392,102
1657078786492,925,-399,-58
1657078786532,930,-132,-45
1657078786572,932,-258,-64
1657078786612,958,-348,-81
1657078786652,975,-530,-22
1657078786692,962,-342,-86
1657078786732,1018,-361,-62
1657078786772,1036,-512,50
1657078786812,1027,-689,114
1657078786852,948,-592,77
1657078786892,875,-380,-11
1657078786932,753,-329,32
1657078786972,740,-461,-25
1657078787012,794,-603,-5
1657078787052,958,-539,-62
1657078787092,991,-851,86
1657078787132,858,-556,25
1657078787172,782,-391,-42
1657078787212,840,-477,-83
1657078787252,859,-303,-42
1657078787292,938,-385,-17
1657078787332,954,-453,52
1657078787372,891,-510,-23
1657078787412,901,-407,-62
1657078787452,947,-396,-188
1657078787492,929,-493,-14
1657078787532,928,-437,-34
1657078787572,936,-436,-77
1657078787612,989,-493,-46
1657078787652,1111,-509,139
1657078787692,1002,-716,251
1657078787732,849,-401,115
1657078787772,764,-268,32
1657078787812,813,-248,-209
1657078787852,1066,-502,223
1657078787892,1008,-442,232
1657078787932,831,-336,72
1657078787972,828,-173,-25
1657078788012,844,-329,-14
1657078788052,988,-302,22
1657078788092,986,-634,122
1657078788132,936,-387,16
1657078788172,940,-300,-29
1657078788212,955,-353,44
1657078788252,929,-400,-19
1657078788292,936,-353,-27
1657078788332,906,-381,-36
1657078788372,948,-361,-63
1657078788412,1037,-488,0
1657078788452,996,-640,-22
1657078788492,1042,-519,95
1657078788532,1062,-542,93
1657078788572,953,-592,113
1657078788612,751,-483,29
1657078788652,696,-467,-20
1657078788692,796,-544,-40
1657078788732,963,-615,8
1657078788772,914,-629,85
1657078788812,768,-461,-19
1657078788852,760,-596,-26
1657078788892,813,-459,-9
1657078788932,906,-451,-3
1657078788972,971,-522,88
1657078789012,916,-478,3
1657078789052,903,-459,-47
1657078789092,907,-604,5
1657078789132,894,-453,-35
1657078789172,931,-488,-46
1657078789212,914,-428,-96
1657078789252,969,-517,-50
1657078789292,1039,-571,43
1657078789332,953,-672,106
1657078789372,877,-417,69
1657078789412,862,-348,95
1657078789452,803,-538,35
1657078789492,869,-436,130
1657078789532,925,-373,135
1657078789572,981,-405,140
1657078789612,937,-406,125
1657078789652,868,-350,61
1657078789692,815,-434,-38
1657078789732,887,-337,-32
1657078789772,908,-366,-34
1657078789812,930,-390,-13
1657078789852,921,-400,-23
1657078789892,920,-391,-20
1657078789932,967,-399,13
1657078789972,991,-441,15
1657078790012,963,-475,-37
1657078790052,1075,-566,6
1657078790092,1159,-639,174
1657078790132,1071,-543,136
1657078790172,819,-411,157
1657078790212,658,-387,83
1657078790252,662,-370,-93
1657078790292,836,-294,-59
1657078790332,1152,-428,64
1657078790372,1145,-542,77
1657078790412,820,-449,-46
1657078790452,647,-485,-67
1657078790492,746,-479,-1
1657078790532,770,-438,10
1657078790572,583,-360,-15
1657078790612,468,-172,12
1657078790652,609,-112,171
1657078790692,453,31,106
1657078790732,318,339,70
1657078790772,299,625,247
1657078790812,286,992,401
1657078790852,136,1387,605
1657078790892,242,1807,973
1657078790932,531,1971,1303
1657078790972,1073,1546,1460
1657078791012,1148,1185,1159
1657078791052,519,1030,797
1657078791092,186,910,503
1657078791132,234,783,348
1657078791172,291,722,381
1657078791212,253,709,380
1657078791252,256,705,418
1657078791292,290,866,415
1657078791332,-147,1301,-355
1657078791372,-38,955,349
1657078791412,208,965,435
1657078791452,257,995,368
1657078791492,282,964,370
1657078791532,282,905,354
1657078791572,205,901,342
1657078791612,115,1005,349
1657078791652,227,1076,414
1657078791692,333,1135,490
1657078791732,384,1073,548
1657078791772,321,931,490
1657078791812,182,788,435
1657078791852,308,799,348
1657078791892,174,816,395
1657078791932,209,843,433
1657078791972,298,888,465
1657078792012,416,842,508
1657078792052,334,848,524
1657078792092,309,809,480
1657078792132,308,822,463
1657078792172,299,833,422
1657078792212,314,853,412
1657078792252,321,846,407
1657078792292,322,836,403
1657078792332,308,855,416
1657078792372,335,867,386
1657078792412,386,1027,413
1657078792452,359,1166,371
1657078792492,270,1173,354
1657078792532,326,979,407
1657078792572,388,832,446
1657078792612,381,834,363
1657078792652,352,884,295
1657078792692,276,921,354
1657078792732,246,918,451
1657078792772,261,913,498
1657078792812,275,804,541
1657078792852,231,773,502
1657078792892,147,730,407
1657078792932,205,873,171
1657078792972,227,911,50
1657078793012,231,866,217
1657078793052,265,838,338
1657078793092,312,887,321
1657078793132,373,937,281
1657078793172,378,901,385
1657078793212,335,927,286
1657078793252,332,990,351
1657078793292,366,1059,396
1657078793332,416,1131,418
1657078793372,496,1182,430
1657078793412,574,1137,372
1657078793452,493,968,352
1657078793492,367,878,405
1657078793532,229,825,398
1657078793572,213,851,441
1657078793612,258,823,484
1657078793652,294,780,542
1657078793692,305,790,564
1657078793732,260,778,548
1657078793772,264,809,501
1657078793812,331,846,438
1657078793852,365,830,409
1657078793892,337,798,390
1657078793932,342,817,341
1657078793972,336,848,290
1657078794012,332,870,278
1657078794052,351,918,257
1657078794092,340,999,261
1657078794132,310,1058,345
1657078794172,347,1093,417
1657078794212,429,1027,433
1657078794252,470,974,386
1657078794292,401,906,248
1657078794332,320,891,259
1657078794372,187,926,290
1657078794412,160,909,347
1657078794452,209,911,433
1657078794492,306,818,474
1657078794532,308,777,405
1657078794572,251,826,288
1657078794612,189,896,152
1657078794652,249,933,164
1657078794692,277,926,201
1657078794732,310,890,284
1657078794772,318,941,330
1657078794812,329,989,277
1657078794852,357,958,267
1657078794892,353,911,290
1657078794932,322,938,268
1657078794972,258,1074,295
1657078795012,315,1137,382
1657078795052,440,1143,356
1657078795092,476,968,389
1657078795132,397,836,394
1657078795172,265,813,366
1657078795212,210,871,335
1657078795252,315,925,361
1657078795292,385,869,456
1657078795332,363,803,536
1657078795372,310,812,485
1657078795412,296,832,431
1657078795452,299,842,385
1657078795492,311,833,360
1657078795532,299,851,365
1657078795572,296,870,346
1657078795612,304,883,326
1657078795652,359,993,206
1657078795692,429,952,241
1657078795732,364,1032,149
1657078795772,306,1173,122
1657078795812,324,1196,137
1657078795852,367,1097,225
1657078795892,375,1007,257
1657078795932,328,994,176
1657078795972,277,975,159
1657078796012,181,969,153
1657078796052,120,997,224
1657078796092,166,969,297
1657078796132,248,864,321
1657078796172,255,722,361
1657078796212,207,723,279
1657078796252,235,786,207
1657078796292,269,899,150
1657078796332,339,922,160
1657078796372,367,897,249
1657078796412,404,915,287
1657078796452,414,943,276
1657078796492,414,954,254
1657078796532,414,965,275
1657078796572,416,1013,222
1657078796612,387,1044,293
1657078796652,424,1083,334
1657078796692,472,1119,286
1657078796732,487,1114,259
1657078796772,386,1016,302
1657078796812,194,869,306
1657078796852,219,847,284
1657078796892,255,803,306
1657078796932,228,827,388
1657078796972,267,898,401
1657078797012,304,914,409
1657078797052,363,901,405
1657078797092,414,856,382
1657078797132,353,788,427
1657078797172,335,816,365
1657078797212,299,842,337
1657078797252,295,875,339
1657078797292,322,880,328
1657078797332,330,901,342
1657078797372,349,923,309
1657078797412,358,928,279
1657078797452,301,1016,291
1657078797492,221,1125,383
1657078797532,386,1067,409
1657078797572,489,1011,326
1657078797612,362,987,242
1657078797652,291,1002,224
1657078797692,231,979,296
1657078797732,233,990,330
1657078797772,220,967,341
1657078797812,259,915,336
1657078797852,231,842,284
1657078797892,231,854,254
1657078797932,145,761,232
1657078797972,177,818,234
1657078798012,219,857,239
1657078798052,237,881,268
1657078798092,257,864,296
1657078798132,255,858,291
1657078798172,271,900,270
1657078798212,288,984,260
1657078798252,305,1069,306
1657078798292,360,1101,319
1657078798332,329,1159,322
1657078798372,320,969,331
1657078798412,389,1005,293
1657078798452,425,1041,287
1657078798492,553,1161,279
1657078798532,629,1084,405
1657078798572,580,958,597
1657078798612,436,902,677
1657078798652,279,868,736
1657078798692,246,881,760
1657078798732,311,899,691
1657078798772,300,864,689
1657078798812,271,848,650
1657078798852,237,775,614
1657078798892,178,705,573
1657078798932,158,657,528
1657078798972,247,672,422
1657078799012,287,594,398
1657078799052,239,616,350
1657078799092,226,651,303
1657078799132,243,704,312
1657078799172,298,799,353
1657078799212,274,924,407
1657078799252,279,1122,470
1657078799292,355,1331,630
1657078799332,602,1367,706
1657078799372,691,1145,735
1657078799412,513,981,591
1657078799452,399,908,411
1657078799492,266,790,395
1657078799532,188,820,351
1657078799572,183,917,290
1657078799612,163,875,287
1657078799652,151,772,334
1657078799692,106,769,327
1657078799732,72,852,349
1657078799772,178,973,311
1657078799812,240,934,259
1657078799852,207,932,303
1657078799892,191,919,288
1657078799932,254,940,332
1657078799972,265,953,342
1657078800012,302,1006,278
1657078800052,300,990,276
1657078800092,276,1006,320
1657078800132,268,1067,334
1657078800172,287,1105,334
1657078800212,328,1119,338
1657078800252,378,1061,340
1657078800292,456,1009,308
1657078800332,455,953,331
1657078800372,453,905,332
1657078800412,512,872,360
1657078800452,394,864,401
1657078800492,299,953,448
1657078800532,254,975,442
1657078800572,330,924,493
1657078800612,332,786,555
1657078800652,280,712,543
1657078800692,223,715,403
1657078800732,196,725,341
1657078800772,280,773,285
1657078800812,316,803,242
1657078800852,323,832,216
1657078800892,329,860,214
1657078800932,345,889,233
1657078800972,356,976,194
1657078801012,346,1076,158
1657078801052,383,1172,269
1657078801092,491,1189,426
1657078801132,529,1179,520
1657078801172,458,1130,475
1657078801212,401,1025,320
1657078801252,266,946,265
1657078801292,24,811,325
1657078801332,6,770,404
1657078801372,214,808,399
1657078801412,245,833,355
1657078801452,203,865,273
1657078801492,158,905,234
1657078801532,239,946,219
1657078801572,263,949,213
1657078801612,236,960,259
1657078801652,265,978,259
1657078801692,265,912,198
1657078801732,179,907,272
1657078801772,181,969,278
1657078801812,252,1009,326
1657078801852,265,1010,388
1657078801892,311,1073,406
1657078801932,327,1119,378
1657078801972,324,1056,385
1657078802012,311,936,401
1657078802052,308,860,374
1657078802092,286,831,297
1657078802132,203,848,323
1657078802172,209,896,427
1657078802212,296,948,444
1657078802252,380,925,449
1657078802292,384,861,476
1657078802332,286,840,410
1657078802372,239,821,376
1657078802412,231,848,361
1657078802452,266,874,349
1657078802492,319,872,369
1657078802532,318,877,360
1657078802572,305,918,329
1657078802612,322,937,293
1657078802652,333,929,269
1657078802692,335,952,270
1657078802732,306,1019,338
1657078802772,343,1039,393
1657078802812,411,949,406
1657078802852,404,884,338
1657078802892,371,912,236
1657078802932,266,912,249
1657078802972,188,948,336
1657078803012,158,963,408
1657078803052,178,930,455
1657078803092,180,829,454
1657078803132,157,804,426
1657078803172,183,862,325
1657078803212,214,932,221
1657078803252,260,932,227
1657078803292,277,924,274
1657078803332,286,909,344
1657078803372,311,945,342
1657078803412,317,1018,347
1657078803452,295,1106,402
1657078803492,351,1122,397
1657078803532,423,1104,373
1657078803572,438,1008,353
1657078803612,356,867,347
1657078803652,277,811,345
1657078803692,185,854,345
1657078803732,148,912,388
1657078803772,264,953,452
1657078803812,327,884,527
1657078803852,334,817,521
1657078803892,257,793,474
1657078803932,210,811,416
1657078803972,222,838,342
1657078804012,251,870,345
1657078804052,276,892,319
1657078804092,319,862,336
1657078804132,304,883,312
1657078804172,290,929,297
1657078804212,292,998,308
1657078804252,259,1148,331
1657078804292,366,1100,411
1657078804332,477,1016,345
1657078804372,421,977,242
1657078804412,293,933,203
1657078804452,146,915,260
1657078804492,132,978,340
1657078804532,159,984,379
1657078804572,188,868,384
1657078804612,145,810,347
1657078804652,111,848,277
1657078804692,147,895,240
1657078804732,229,883,274
1657078804772,250,877,291
1657078804812,255,910,271
1657078804852,246,954,252
1657078804892,279,943,307
1657078804932,277,1026,340
1657078804972,267,1106,366
1657078805012,311,1120,452
1657078805052,389,1137,390
1657078805092,439,1107,317
1657078805132,353,963,308
1657078805172,266,856,317
1657078805212,201,832,334
1657078805252,132,856,354
1657078805292,164,856,430
1657078805332,261,863,468
1657078805372,302,853,502
1657078805412,247,819,507
1657078805452,234,813,461
1657078805492,261,865,411
1657078805532,308,891,411
1657078805572,335,906,391
1657078805612,339,933,353
1657078805652,334,938,314
1657078805692,314,946,280
1657078805732,291,977,242
1657078805772,251,1042,294
1657078805812,237,1067,394
1657078805852,368,1022,399
1657078805892,455,946,327
1657078805932,364,904,232
1657078805972,213,938,270
1657078806012,119,959,294
1657078806052,197,950,336
1657078806092,236,863,370
1657078806132,207,828,326
1657078806172,178,854,227
1657078806212,188,843,245
1657078806252,264,832,284
1657078806292,321,861,240
1657078806332,342,908,210
1657078806372,346,996,215
1657078806412,313,1085,331
1657078806452,316,1127,429
1657078806492,442,1136,334
1657078806532,527,1075,300
1657078806572,402,937,327
1657078806612,289,842,345
1657078806652,224,778,336
1657078806692,215,829,359
1657078806732,219,934,390
1657078806772,300,902,489
1657078806812,337,864,544
1657078806852,375,813,524
1657078806892,316,818,425
1657078806932,320,865,307
1657078806972,286,874,287
1657078807012,328,850,337
1657078807052,362,917,346
1657078807092,416,942,264
1657078807132,341,878,299
1657078807172,293,1005,336
1657078807212,288,1116,422
1657078807252,456,1101,484
1657078807292,547,1044,415
1657078807332,447,999,234
1657078807372,242,958,162
1657078807412,71,924,228
1657078807452,21,944,246
1657078807492,61,931,269
1657078807532,71,875,260
1657078807572,62,844,252
1657078807612,79,823,249
1657078807652,182,817,256
1657078807692,217,865,198
1657078807732,296,766,346
1657078807772,329,788,301
1657078807812,389,957,372
1657078807852,438,1170,331
1657078807892,528,1283,316
1657078807932,643,1310,313
1657078807972,678,1214,297
1657078808012,555,1035,328
1657078808052,413,922,334
1657078808092,304,842,359
1657078808132,183,829,386
1657078808172,170,917,354
1657078808212,272,910,428
1657078808252,333,889,451
1657078808292,322,819,448
1657078808332,289,741,423
1657078808372,235,752,370
1657078808412,223,781,319
1657078808452,258,819,285
1657078808492,284,868,241
1657078808532,319,915,242
1657078808572,285,1092,306
1657078808612,264,1207,390
1657078808652,420,1197,486
1657078808692,549,1123,276
1657078808732,424,1046,122
1657078808772,202,1018,96
1657078808812,103,918,157
1657078808852,125,853,241
1657078808892,143,782,238
1657078808932,171,824,246
1657078808972,233,895,320
1657078809012,323,874,297
1657078809052,443,864,302
1657078809092,373,908,233
1657078809132,427,1021,138
1657078809172,418,1031,99
1657078809212,371,996,100
1657078809252,317,911,171
1657078809292,300,902,187
1657078809332,279,911,314
1657078809372,337,897,383
1657078809412,488,977,346
1657078809452,601,990,346
1657078809492,574,832,382
1657078809532,428,747,310
1657078809572,326,770,278
1657078809612,346,843,305
1657078809652,447,963,345
1657078809692,603,1021,374
1657078809732,571,1033,349
1657078809772,472,961,326
1657078809812,369,853,312
1657078809852,333,778,295
1657078809892,326,726,290
1657078809932,362,745,264
1657078809972,378,799,249
1657078810012,393,883,268
1657078810052,412,1080,345
1657078810092,538,1078,454
1657078810132,681,1087,406
1657078810172,573,1082,161
1657078810212,484,1041,174
1657078810252,256,951,204
1657078810292,258,845,309
1657078810332,394,795,336
1657078810372,399,814,276
1657078810412,337,788,223
1657078810452,315,731,188
1657078810492,348,786,160
1657078810532,371,807,166
1657078810572,415,873,134
1657078810612,401,916,110
1657078810652,383,910,108
1657078810692,346,925,58
1657078810732,262,962,45
1657078810772,268,952,65
1657078810812,270,925,168
1657078810852,267,899,262
1657078810892,307,983,303
1657078810932,332,1150,174
1657078810972,430,1175,113
1657078811012,488,1125,193
1657078811052,432,965,268
1657078811092,416,830,391
1657078811132,357,858,316
1657078811172,261,964,213
1657078811212,165,1000,148
1657078811252,167,979,258
1657078811292,336,914,304
1657078811332,393,846,330
1657078811372,329,803,331
1657078811412,310,874,327
1657078811452,345,934,372
1657078811492,407,948,355
1657078811532,416,962,281
1657078811572,367,941,243
1657078811612,337,960,212
1657078811652,308,983,191
1657078811692,299,1014,206
1657078811732,260,1062,250
1657078811772,207,1144,371
1657078811812,300,1030,400
1657078811852,331,877,408
1657078811892,361,807,297
1657078811932,300,809,217
1657078811972,226,884,206
1657078812012,213,939,276
1657078812052,268,1023,329
1657078812092,307,981,392
1657078812132,282,917,323
1657078812172,251,833,317
1657078812212,196,838,270
1657078812252,209,842,295
1657078812292,280,901,246
1657078812332,339,905,209
1657078812372,282,894,230
1657078812412,255,881,255
1657078812452,248,909,321
1657078812492,205,1027,391
1657078812532,279,1171,413
1657078812572,423,1247,429
1657078812612,521,1100,463
1657078812652,522,903,455
1657078812692,337,870,383
1657078812732,241,893,330
1657078812772,212,863,335
1657078812812,246,812,428
1657078812852,261,785,473
1657078812892,246,788,498
1657078812932,237,792,485
1657078812972,253,851,414
1657078813012,315,879,386
1657078813052,384,909,373
1657078813092,457,936,349
1657078813132,408,884,353
1657078813172,353,881,325
1657078813212,362,898,325
1657078813252,379,930,301
1657078813292,403,956,279
1657078813332,415,967,262
1657078813372,323,1022,310
1657078813412,318,973,401
1657078813452,390,968,353
1657078813492,358,974,224
1657078813532,315,944,173
1657078813572,238,893,130
1657078813612,178,867,249
1657078813652,120,835,363
1657078813692,215,828,388
1657078813732,299,779,383
1657078813772,316,763,320
1657078813812,302,800,266
1657078813852,308,864,232
1657078813892,310,916,260
1657078813932,377,973,261
1657078813972,431,1076,267
1657078814012,423,1212,272
1657078814052,477,1255,274
1657078814092,505,1160,385
1657078814132,511,1044,426
1657078814172,457,943,366
1657078814212,374,868,335
1657078814252,255,823,444
1657078814292,159,792,555
1657078814332,273,815,546
1657078814372,365,865,463
1657078814412,344,877,425
1657078814452,274,847,400
1657078814492,275,832,375
1657078814532,230,806,381
1657078814572,209,802,354
1657078814612,254,844,289
1657078814652,284,933,246
1657078814692,285,975,252
1657078814732,229,1123,315
1657078814772,265,1050,421
1657078814812,404,1040,343
1657078814852,421,1023,208
1657078814892,368,949,193
1657078814932,264,918,254
1657078814972,219,912,317
1657078815012,241,915,348
1657078815052,246,872,355
1657078815092,235,830,350
1657078815132,196,850,285
1657078815172,167,869,296
1657078815212,193,903,311
1657078815252,246,927,298
1657078815292,263,939,245
1657078815332,260,943,231
1657078815372,278,968,225
1657078815412,271,986,302
1657078815452,286,988,365
1657078815492,306,1057,359
1657078815532,369,1132,309
1657078815572,448,1144,290
1657078815612,459,1026,320
1657078815652,400,881,327
1657078815692,327,810,370
1657078815732,245,793,312
1657078815772,168,871,331
1657078815812,218,987,408
1657078815852,355,965,467
1657078815892,495,968,500
1657078815932,444,921,479
1657078815972,399,895,470
1657078816012,343,846,417
1657078816052,315,816,329
1657078816092,383,828,308
1657078816132,391,823,265
1657078816172,362,819,230
1657078816212,401,869,185
1657078816252,485,900,177
1657078816292,475,909,213
1657078816332,479,942,282
1657078816372,623,988,335
1657078816412,792,1009,276
1657078816452,616,874,178
1657078816492,417,843,113
1657078816532,289,898,60
1657078816572,365,943,145
1657078816612,460,1073,58
1657078816652,380,988,58
1657078816692,270,895,40
1657078816732,156,807,100
1657078816772,103,692,229
1657078816812,150,676,299
1657078816852,201,674,311
1657078816892,154,686,369
1657078816932,157,791,430
1657078816972,270,971,486
1657078817012,399,1214,492
1657078817052,586,1456,543
1657078817092,843,1531,516
1657078817132,822,1360,465
1657078817172,595,1164,371
1657078817212,462,993,304
1657078817252,396,870,258
1657078817292,354,828,182
1657078817332,335,881,221
1657078817372,215,866,332
1657078817412,230,976,414
1657078817452,411,1063,426
1657078817492,488,1120,452
1657078817532,421,1069,519
1657078817572,353,974,513
1657078817612,233,873,529
1657078817652,165,688,477
1657078817692,292,625,392
1657078817732,291,636,306
1657078817772,252,641,250
1657078817812,268,696,188
1657078817852,270,890,207
1657078817892,194,1034,326
1657078817932,231,1091,488
1657078817972,408,1172,418
1657078818012,537,1275,-44
1657078818052,373,1103,-60
1657078818092,213,912,221
1657078818132,200,838,341
1657078818172,290,877,328
1657078818212,332,914,257
1657078818252,336,930,257
1657078818292,266,953,309
1657078818332,290,923,307
1657078818372,297,853,303
1657078818412,275,945,227
1657078818452,240,1002,140
1657078818492,131,974,98
1657078818532,215,975,131
1657078818572,273,972,187
1657078818612,271,1036,233
1657078818652,337,1063,279
1657078818692,399,1068,281
1657078818732,461,1080,255
1657078818772,444,1028,234
1657078818812,355,941,275
1657078818852,311,879,269
1657078818892,282,826,250
1657078818932,216,851,259
1657078818972,154,910,310
1657078819012,198,973,371
1657078819052,309,964,413
1657078819092,390,932,429
1657078819132,294,881,373
1657078819172,256,900,287
1657078819212,222,948,200
1657078819252,245,922,252
1657078819292,232,989,235
1657078819332,217,1132,243
1657078819372,224,1264,282
1657078819412,258,1134,367
1657078819452,285,1041,283
1657078819492,200,976,98
1657078819532,43,891,150
1657078819572,-67,769,286
1657078819612,65,735,365
1657078819652,162,782,284
1657078819692,189,804,259
1657078819732,204,821,275
1657078819772,194,862,330
1657078819812,256,890,360
1657078819852,295,964,309
1657078819892,294,986,321
1657078819932,338,1064,276
1657078819972,356,1135,262
1657078820012,424,1198,261
1657078820052,517,1288,181
1657078820092,556,1250,269
1657078820132,522,1176,279
1657078820172,454,1047,303
1657078820212,308,919,374
1657078820252,285,928,494
1657078820292,144,861,656
1657078820332,217,901,640
1657078820372,285,921,532
1657078820412,296,893,481
1657078820452,249,833,446
1657078820492,203,754,393
1657078820532,174,762,324
1657078820572,192,798,262
1657078820612,223,828,214
1657078820652,241,838,202
1657078820692,242,837,262
1657078820732,213,944,324
1657078820772,256,1001,381
1657078820812,305,1145,356
1657078820852,401,1174,269
1657078820892,461,1062,280
1657078820932,443,971,258
1657078820972,305,991,255
1657078821012,257,931,347
1657078821052,225,947,264
1657078821092,236,879,309
1657078821132,209,839,286
1657078821172,178,836,219
1657078821212,143,853,179
1657078821252,161,921,216
1657078821292,198,840,239
1657078821332,197,872,272
1657078821372,240,914,268
1657078821412,238,986,312
1657078821452,256,1087,365
1657078821492,337,1125,411
1657078821532,427,1194,395
1657078821572,526,1205,301
1657078821612,569,1107,227
1657078821652,408,951,256
1657078821692,317,866,358
1657078821732,256,822,447
1657078821772,242,837,510
1657078821812,347,879,477
1657078821852,365,933,436
1657078821892,285,923,477
1657078821932,239,891,593
1657078821972,205,803,645
1657078822012,153,727,604
1657078822052,153,700,498
1657078822092,109,723,434
1657078822132,80,759,372
1657078822172,106,836,326
1657078822212,124,983,324
1657078822252,738,2047,-1369
1657078822292,652,1265,348
1657078822332,409,912,858
1657078822372,456,1031,335
1657078822412,422,955,351
1657078822452,182,975,372
1657078822492,90,940,353
1657078822532,90,912,368
1657078822572,177,833,463
1657078822612,154,767,490
1657078822652,136,728,503
1657078822692,127,839,337
1657078822732,388,1042,-51
1657078822772,554,1049,-110
1657078822812,485,871,85
1657078822852,371,798,183
1657078822892,355,815,159
1657078822932,349,925,89
1657078822972,217,842,342
1657078823012,263,1104,289
1657078823052,355,1051,461
1657078823092,493,1038,513
1657078823132,548,1024,387
1657078823172,443,947,389
1657078823212,217,846,457
1657078823252,45,737,394
1657078823292,225,832,319
1657078823332,351,883,330
1657078823372,414,931,345
1657078823412,413,997,352
1657078823452,372,1046,284
1657078823492,316,1039,221
1657078823532,299,953,280
1657078823572,278,877,320
1657078823612,264,878,323
1657078823652,253,880,351
1657078823692,193,996,403
1657078823732,180,1112,540
1657078823772,354,1149,499
1657078823812,452,1080,323
1657078823852,346,985,264
1657078823892,155,1015,230
1657078823932,31,935,251
1657078823972,102,859,260
1657078824012,111,809,215
1657078824052,107,782,254
1657078824092,113,819,260
1657078824132,144,843,305
1657078824172,190,878,272
1657078824212,264,969,160
1657078824252,302,1037,226
1657078824292,256,894,309
1657078824332,283,946,319
1657078824372,330,1008,302
1657078824412,341,1141,389
1657078824452,467,1207,345
1657078824492,578,1202,333
1657078824532,527,1094,355
1657078824572,394,964,320
1657078824612,210,846,351
1657078824652,71,776,357
1657078824692,190,892,479
1657078824732,162,808,480
1657078824772,292,810,489
1657078824812,327,827,485
1657078824852,254,845,468
1657078824892,288,904,408
1657078824932,297,917,346
1657078824972,288,912,354
1657078825012,282,950,346
1657078825052,307,964,338
1657078825092,291,943,365
1657078825132,280,838,348
1657078825172,310,818,328
1657078825212,296,889,309
1657078825252,250,1053,348
1657078825292,403,1076,352
1657078825332,536,1042,261
1657078825372,427,948,370
1657078825412,261,985,416
1657078825452,181,1006,286
1657078825492,190,883,376
1657078825532,134,815,291
1657078825572,159,803,158
1657078825612,184,886,71
1657078825652,228,807,201
1657078825692,287,816,329
1657078825732,296,851,316
1657078825772,298,894,306
1657078825812,308,1010,242
1657078825852,306,1094,238
1657078825892,251,1169,376
1657078825932,341,1169,429
1657078825972,368,1111,476
1657078826012,363,1001,454
1657078826052,347,872,355
1657078826092,257,801,321
1657078826132,134,754,349
1657078826172,154,822,439
1657078826212,263,886,444
1657078826252,369,911,443
1657078826292,375,922,485
1657078826332,320,878,489
1657078826372,261,857,471
1657078826412,223,870,426
1657078826452,232,886,371
1657078826492,226,872,363
1657078826532,205,871,362
1657078826572,194,880,363
1657078826612,224,902,351
1657078826652,251,921,288
1657078826692,266,902,260
1657078826732,266,919,301
1657078826772,246,1036,364
1657078826812,269,1118,502
1657078826852,451,1049,438
1657078826892,512,1065,379
1657078826932,342,1043,353
1657078826972,255,1000,321
1657078827012,179,951,358
1657078827052,105,934,400
1657078827092,102,1013,208
1657078827132,89,906,238
1657078827172,94,801,320
1657078827212,86,759,335
1657078827252,147,804,291
1657078827292,205,841,277
1657078827332,224,880,287
1657078827372,279,892,281
1657078827412,313,875,326
1657078827452,330,926,310
1657078827492,352,996,289
1657078827532,382,1076,278
1657078827572,394,1128,294
1657078827612,432,1121,336
1657078827652,422,1078,310
1657078827692,329,1012,325
1657078827732,294,942,331
1657078827772,249,921,351
1657078827812,241,941,307
1657078827852,261,897,343
1657078827892,231,867,391
1657078827932,223,874,410
1657078827972,246,923,407
1657078828012,316,884,438
1657078828052,361,859,406
1657078828092,313,854,401
1657078828132,313,862,380
1657078828172,278,898,306
1657078828212,262,899,296
1657078828252,254,875,327
1657078828292,293,918,242
1657078828332,282,981,231
1657078828372,309,1128,284
1657078828412,259,1083,398
1657078828452,391,1086,388
1657078828492,421,1015,289
1657078828532,365,942,216
1657078828572,227,941,247
1657078828612,153,940,309
1657078828652,221,961,259
1657078828692,208,897,282
1657078828732,162,847,273
1657078828772,132,829,235
1657078828812,121,796,194
1657078828852,150,811,171
1657078828892,167,893,181
1657078828932,224,917,330
1657078828972,413,1041,187
1657078829012,456,995,210
1657078829052,407,1038,143
1657078829092,389,1030,154
1657078829132,342,1025,292
1657078829172,298,1089,311
1657078829212,362,1109,305
1657078829252,365,1014,349
1657078829292,352,970,304
1657078829332,324,949,261
1657078829372,314,932,242
1657078829412,305,884,261
1657078829452,251,851,321
1657078829492,212,911,361
1657078829532,257,960,401
1657078829572,366,944,387
1657078829612,415,910,372
1657078829652,304,809,381
1657078829692,243,807,328
1657078829732,212,814,350
1657078829772,218,835,341
1657078829812,277,891,301
1657078829852,289,937,296
1657078829892,309,948,286
1657078829932,323,982,207
1657078829972,321,1070,157
1657078830012,261,1178,208
1657078830052,326,1098,315
1657078830092,373,1044,282
1657078830132,388,1024,129
1657078830172,333,1021,37
1657078830212,249,1008,116
1657078830252,209,1005,247
1657078830292,192,1060,273
1657078830332,224,996,303
1657078830372,187,901,294
1657078830412,127,810,329
1657078830452,103,830,210
1657078830492,151,843,199
1657078830532,178,851,223
1657078830572,218,887,210
1657078830612,279,934,179
1657078830652,306,948,187
1657078830692,335,955,175
1657078830732,348,978,184
1657078830772,293,1026,251
1657078830812,325,1074,301
1657078830852,432,1169,194
1657078830892,538,1287,4
1657078830932,453,1093,167
1657078830972,449,905,278
1657078831012,366,831,342
1657078831052,270,871,356
1657078831092,189,941,313
1657078831132,262,945,362
1657078831172,373,909,365
1657078831212,309,874,326
1657078831252,220,856,328
1657078831292,205,861,282
1657078831332,252,855,249
1657078831372,278,904,209
1657078831412,317,932,201
1657078831452,332,935,177
1657078831492,310,969,146
1657078831532,305,956,149
1657078831572,306,1049,176
1657078831612,268,1065,278
1657078831652,339,1034,380
1657078831692,393,1114,230
1657078831732,403,1050,160
1657078831772,365,941,129
1657078831812,253,881,208
1657078831852,172,879,302
1657078831892,152,873,277
1657078831932,232,866,253
1657078831972,190,917,169
1657078832012,173,931,216
1657078832052,199,930,236
1657078832092,235,926,237
1657078832132,266,951,206
1657078832172,282,981,153
1657078832212,288,995,146
1657078832252,277,1008,167
1657078832292,267,1047,219
1657078832332,322,1122,268
1657078832372,438,1218,233
1657078832412,516,1175,241
1657078832452,518,1035,273
1657078832492,410,880,318
1657078832532,270,815,365
1657078832572,192,828,417
1657078832612,247,890,425
1657078832652,347,890,413
1657078832692,434,910,374
1657078832732,383,888,371
1657078832772,355,864,392
1657078832812,324,844,341
1657078832852,378,891,253
1657078832892,405,871,188
1657078832932,442,795,194
1657078832972,477,827,181
1657078833012,412,881,147
1657078833052,351,1041,149
1657078833092,318,1201,184
1657078833132,289,1211,51
1657078833172,-53,894,45
1657078833212,-286,809,-149
1657078833252,-39,1063,-17
1657078833292,214,1196,256
1657078833332,219,1109,199
1657078833372,-2,958,95
1657078833412,-119,755,196
1657078833452,127,833,179
1657078833492,284,858,205
1657078833532,404,966,161
1657078833572,391,1007,117
1657078833612,322,1008,65
1657078833652,326,1080,53
1657078833692,256,1157,-2
1657078833732,210,1209,10
1657078833772,218,1204,130
1657078833812,201,1201,111
1657078833852,193,1113,76
1657078833892,137,926,132
1657078833932,124,786,124
1657078833972,153,879,183
1657078834012,228,964,249
1657078834052,229,1098,211
1657078834092,171,965,132
1657078834132,75,908,86
1657078834172,172,934,168
1657078834212,261,967,86
1657078834252,214,977,97
1657078834292,252,993,50
1657078834332,180,986,31
1657078834372,200,1047,44
1657078834412,134,1016,-69
1657078834452,113,1032,1
1657078834492,187,1177,90
1657078834532,343,1093,411
1657078834572,212,1180,207
1657078834612,-7,1081,-111
1657078834652,-144,973,-109
1657078834692,-139,1006,137
1657078834732,75,1116,196
1657078834772,-40,1017,147
1657078834812,-71,954,14
1657078834852,-46,965,-23
1657078834892,-2,930,79
1657078834932,78,937,97
1657078834972,100,1022,80
1657078835012,85,987,2
1657078835052,42,935,46
1657078835092,16,943,24
1657078835132,36,1026,-86
1657078835172,116,1026,192
1657078835212,144,1139,219
1657078835252,144,1334,20
1657078835292,145,1258,-9
1657078835332,83,1056,-34
1657078835372,126,844,46
1657078835412,201,849,185
1657078835452,160,995,216
1657078835492,200,1122,186
1657078835532,200,1078,126
1657078835572,135,917,195
1657078835612,107,830,200
1657078835652,136,911,288
1657078835692,205,1016,201
1657078835732,122,1046,37
1657078835772,164,962,85
1657078835812,78,945,72
1657078835852,83,978,24
1657078835892,102,1025,-21
1657078835932,143,1092,-29
1657078835972,191,1217,41
1657078836012,269,1216,355
1657078836052,276,1187,267
1657078836092,149,1091,22
1657078836132,42,936,24
1657078836172,30,914,224
1657078836212,53,1048,316
1657078836252,-31,941,336
1657078836292,-140,874,241
1657078836332,-44,1016,139
1657078836372,33,1008,83
1657078836412,-13,925,62
1657078836452,79,946,53
1657078836492,135,992,6
1657078836532,178,1038,2
1657078836572,152,992,19
1657078836612,143,962,75
1657078836652,148,992,77
1657078836692,123,992,99
1657078836732,87,943,157
1657078836772,149,1097,164
1657078836812,82,1142,209
1657078836852,150,1165,206
1657078836892,137,1200,110
1657078836932,177,1092,89
1657078836972,225,983,137
1657078837012,193,811,117
1657078837052,227,901,193
1657078837092,311,995,270
1657078837132,393,1054,325
1657078837172,337,1050,301
1657078837212,278,1014,223
1657078837252,221,919,182
1657078837292,160,881,152
1657078837332,190,822,244
1657078837372,252,822,287
1657078837412,286,879,279
1657078837452,361,932,264
1657078837492,383,981,232
1657078837532,379,1003,203
1657078837572,385,990,199
1657078837612,372,951,195
1657078837652,360,907,204
1657078837692,327,879,230
1657078837732,304,906,195
1657078837772,226,1036,186
1657078837812,192,1059,359
1657078837852,342,1043,378
1657078837892,378,1001,312
1657078837932,358,917,237
1657078837972,204,902,213
1657078838012,140,905,275
1657078838052,241,997,389
1657078838092,331,987,373
1657078838132,291,886,363
1657078838172,235,869,317
1657078838212,164,955,138
1657078838252,162,912,212
1657078838292,213,897,272
1657078838332,282,902,332
1657078838372,297,921,270
1657078838412,278,978,229
1657078838452,274,1034,308
1657078838492,241,1080,299
1657078838532,286,1151,362
1657078838572,360,1099,347
1657078838612,404,1001,342
1657078838652,385,908,317
1657078838692,331,804,297
1657078838732,268,813,314
1657078838772,227,912,310
1657078838812,289,960,386
1657078838852,392,983,420
1657078838892,406,884,476
1657078838932,309,821,549
1657078838972,264,817,548
1657078839012,226,745,537
1657078839052,195,753,551
1657078839092,204,732,544
1657078839132,232,769,563
1657078839172,223,778,575
1657078839212,252,768,541
1657078839252,238,882,591
1657078839292,193,932,674
1657078839332,277,939,702
1657078839372,341,950,655
1657078839412,375,889,506
1657078839452,282,934,313
1657078839492,147,881,505
1657078839532,143,812,549
1657078839572,209,790,602
1657078839612,252,742,560
1657078839652,190,726,508
1657078839692,166,730,454
1657078839732,195,935,326
1657078839772,200,1024,227
1657078839812,248,991,341
1657078839852,273,941,399
1657078839892,258,966,311
1657078839932,237,968,332
1657078839972,227,879,392
1657078840012,211,896,485
1657078840052,189,1085,371
1657078840092,237,1121,434
1657078840132,232,1093,389
1657078840172,331,1043,354
1657078840212,307,922,384
1657078840252,237,867,315
1657078840292,151,770,384
1657078840332,110,840,427
1657078840372,229,887,486
1657078840412,320,850,521
1657078840452,328,843,542
1657078840492,234,846,479
1657078840532,213,854,414
1657078840572,216,865,353
1657078840612,222,874,366
1657078840652,218,891,381
1657078840692,233,896,377
1657078840732,232,916,354
1657078840772,226,928,317
1657078840812,226,934,302
1657078840852,223,978,273
1657078840892,248,1045,286
1657078840932,211,1174,327
1657078840972,263,1173,437
1657078841012,375,1035,417
1657078841052,382,950,354
1657078841092,273,909,220
1657078841132,192,854,253
1657078841172,110,815,370
1657078841212,246,972,423
1657078841252,325,1023,380
1657078841292,195,896,443
1657078841332,25,936,299
1657078841372,-5,923,206
1657078841412,43,929,58
1657078841452,173,876,203
1657078841492,251,883,250
1657078841532,284,941,156
1657078841572,313,972,125
1657078841612,362,963,95
1657078841652,273,687,529
1657078841692,160,1019,224
1657078841732,228,1224,239
1657078841772,331,1160,392
1657078841812,454,1086,410
1657078841852,444,983,333
1657078841892,343,897,287
1657078841932,227,781,315
1657078841972,105,789,335
1657078842012,86,868,349
1657078842052,255,934,387
1657078842092,381,959,392
1657078842132,414,945,435
1657078842172,291,903,439
1657078842212,256,917,380
1657078842252,228,919,329
1657078842292,199,894,325
1657078842332,188,885,334
1657078842372,190,865,339
1657078842412,211,876,340
1657078842452,238,907,293
1657078842492,250,965,275
1657078842532,219,1091,264
1657078842572,214,1200,348
1657078842612,375,1120,366
1657078842652,429,1002,349
1657078842692,343,932,252
1657078842732,290,972,187
1657078842772,195,1011,277
1657078842812,176,1064,327
1657078842852,189,1055,361
1657078842892,192,930,401
1657078842932,107,865,401
1657078842972,59,829,325
1657078843012,69,886,191
1657078843052,134,889,192
1657078843092,171,855,233
1657078843132,204,884,214
1657078843172,228,894,156
1657078843212,282,888,133
1657078843252,336,837,333
1657078843292,350,932,362
1657078843332,295,1144,351
1657078843372,395,1242,345
1657078843412,525,1306,257
1657078843452,608,1168,212
1657078843492,478,974,174
1657078843532,303,841,246
1657078843572,168,797,253
1657078843612,177,833,305
1657078843652,280,876,345
1657078843692,330,884,416
1657078843732,310,906,421
1657078843772,264,919,403
1657078843812,233,922,412
1657078843852,228,903,377
1657078843892,249,899,337
1657078843932,230,888,333
1657078843972,210,915,277
1657078844012,201,931,239
1657078844052,214,949,222
1657078844092,213,1026,222
1657078844132,255,1139,293
1657078844172,336,1110,357
1657078844212,419,1058,363
1657078844252,397,1011,267
1657078844292,350,948,219
1657078844332,252,970,216
1657078844372,190,956,306
1657078844412,177,978,322
1657078844452,206,928,339
1657078844492,210,870,304
1657078844532,165,856,318
1657078844572,123,847,229
1657078844612,152,880,182
1657078844652,160,897,176
1657078844692,189,898,270
1657078844732,218,878,312
1657078844772,239,904,283
1657078844812,273,914,319
1657078844852,284,948,260
1657078844892,290,1022,222
1657078844932,256,1137,230
1657078844972,294,1151,336
1657078845012,378,1167,328
1657078845052,442,1128,303
1657078845092,391,1054,270
1657078845132,361,947,279
1657078845172,283,856,265
1657078845212,199,835,333
1657078845252,151,874,370
1657078845292,272,906,433
1657078845332,369,877,481
1657078845372,394,863,500
1657078845412,291,821,499
1657078845452,285,831,445
1657078845492,301,852,411
1657078845532,280,851,371
1657078845572,302,846,351
1657078845612,341,895,288
1657078845652,357,931,244
1657078845692,317,983,294
1657078845732,307,1120,436
1657078845772,432,1106,395
1657078845812,541,1016,384
1657078845852,551,938,345
1657078845892,522,953,353
1657078845932,372,799,460
1657078845972,455,727,523
1657078846012,674,862,591
1657078846052,696,780,509
1657078846092,515,679,440
1657078846132,372,561,351
1657078846172,249,631,301
1657078846212,216,692,186
1657078846252,150,729,136
1657078846292,86,842,108
1657078846332,66,805,115
1657078846372,19,734,215
1657078846412,42,757,330
1657078846452,106,937,411
1657078846492,79,1138,879
1657078846532,289,1344,1191
1657078846572,637,1632,1063
1657078846612,972,1598,741
1657078846652,825,1293,445
1657078846692,443,1043,350
1657078846732,205,846,221
1657078846772,171,776,211
1657078846812,165,762,242
1657078846852,251,868,313
1657078846892,350,971,344
1657078846932,445,1101,391
1657078846972,465,1174,425
1657078847012,412,1212,460
1657078847052,374,1187,453
1657078847092,270,1093,492
1657078847132,165,925,494
1657078847172,77,768,436
1657078847212,28,645,348
1657078847252,-10,560,262
1657078847292,-45,523,191
1657078847332,-91,665,195
1657078847372,-168,854,346
1657078847412,-23,1262,443
1657078847452,501,1637,216
1657078847492,789,1560,85
1657078847532,620,1351,281
1657078847572,304,1157,294
1657078847612,171,1042,158
1657078847652,175,888,293
1657078847692,126,742,324
1657078847732,121,726,331
1657078847772,180,777,302
1657078847812,198,837,298
1657078847852,203,855,330
1657078847892,224,844,314
1657078847932,228,901,304
1657078847972,226,1005,190
1657078848012,257,1037,113
1657078848052,251,920,330
1657078848092,225,995,339
1657078848132,229,1059,333
1657078848172,306,1151,301
1657078848212,438,1253,282
1657078848252,566,1220,218
1657078848292,507,1071,237
1657078848332,332,926,397
1657078848372,177,863,502
1657078848412,83,859,519
1657078848452,238,922,470
1657078848492,340,911,465
1657078848532,288,945,492
1657078848572,202,911,470
1657078848612,183,845,458
1657078848652,219,800,415
1657078848692,208,749,301
1657078848732,242,751,242
1657078848772,366,832,189
1657078848812,521,1015,153
1657078848852,531,1107,159
1657078848892,510,1066,219
1657078848932,585,1139,165
1657078848972,621,1170,15
1657078849012,564,1092,-16
1657078849052,466,1056,-50
1657078849092,364,1032,38
1657078849132,362,942,6
1657078849172,556,1097,-269
1657078849212,564,924,-165
1657078849252,659,996,-451
1657078849292,506,728,-426
1657078849332,587,702,-542
1657078849372,464,498,-760
1657078849412,335,97,-639
1657078849452,232,-138,-535
1657078849492,224,25,-632
1657078849532,359,77,-549
1657078849572,280,346,-903
1657078849612,340,375,-732
1657078849652,223,347,-663
1657078849692,185,334,-717
1657078849732,151,186,-635
1657078849772,266,158,-579
1657078849812,272,299,-660
1657078849852,150,333,-487
1657078849892,461,827,-503
1657078849932,355,829,-719
1657078849972,209,804,-342
1657078850012,368,1249,-148
1657078850052,562,1388,-291
1657078850092,526,1231,-60
1657078850132,586,1207,209
1657078850172,630,1196,281
1657078850212,600,1179,228
1657078850252,492,1133,187
1657078850292,441,1039,208
1657078850332,393,986,238
1657078850372,372,924,279
1657078850412,343,952,303
1657078850452,292,1068,316
1657078850492,431,1162,410
1657078850532,511,1193,344
1657078850572,667,1071,298
1657078850612,604,1043,68
1657078850652,564,1077,-6
1657078850692,610,1083,370
1657078850732,594,1101,520
1657078850772,630,1054,527
1657078850812,729,1077,698
1657078850852,633,787,423
1657078850892,748,758,317
1657078850932,522,404,377
1657078850972,197,81,252
1657078851012,-117,6,-8
1657078851052,-123,193,-1
1657078851092,-24,513,26
1657078851132,-79,556,218
1657078851172,8,956,629
1657078851212,-115,1205,946
1657078851252,-68,1539,1663
1657078851292,590,1833,2046
1657078851332,899,1822,1468
1657078851372,673,1399,804
1657078851412,400,1095,385
1657078851452,208,924,127
1657078851492,280,818,15
1657078851532,292,807,65
1657078851572,301,954,125
1657078851612,437,1099,301
1657078851652,583,1254,527
1657078851692,588,1304,633
1657078851732,375,1276,714
1657078851772,219,1219,657
1657078851812,213,1233,629
1657078851852,228,1155,609
1657078851892,174,1054,526
1657078851932,125,852,527
1657078851972,22,586,579
1657078852012,-40,544,352
1657078852052,-27,629,110
1657078852092,-112,684,46
1657078852132,-167,755,94
1657078852172,-15,994,170
1657078852212,262,1244,139
1657078852252,444,1404,144
1657078852292,477,1347,252
1657078852332,559,1267,357
1657078852372,604,1173,428
1657078852412,567,1100,274
1657078852452,401,930,226
1657078852492,339,841,242
1657078852532,345,846,192
1657078852572,342,865,142
1657078852612,383,924,157
1657078852652,391,988,150
1657078852692,345,982,157
1657078852732,298,997,202
1657078852772,243,1012,148
1657078852812,224,1012,138
1657078852852,161,1030,171
1657078852892,229,1062,183
1657078852932,309,1066,161
1657078852972,480,1024,148
1657078853012,583,998,167
1657078853052,496,967,200
1657078853092,447,1016,266
1657078853132,500,1065,339
1657078853172,644,1103,358
1657078853212,739,1093,472
1657078853252,508,897,481
1657078853292,402,791,477
1657078853332,298,622,385
1657078853372,226,582,297
1657078853412,218,503,321
1657078853452,212,469,261
1657078853492,180,598,286
1657078853532,169,605,295
1657078853572,137,682,312
1657078853612,54,801,512
1657078853652,30,794,702
1657078853692,182,1210,1004
1657078853732,485,1346,881
1657078853772,661,1376,673
1657078853812,473,1215,496
1657078853852,271,1071,435
1657078853892,232,923,438
1657078853932,237,814,395
1657078853972,237,781,357
1657078854012,202,805,324
1657078854052,171,885,320
1657078854092,195,992,302
1657078854132,176,965,322
1657078854172,158,924,358
1657078854212,130,922,283
1657078854252,118,930,184
1657078854292,140,895,237
1657078854332,163,974,283
1657078854372,158,1063,283
1657078854412,180,1139,410
1657078854452,270,1159,448
1657078854492,385,1066,442
1657078854532,350,964,408
1657078854572,265,868,392
1657078854612,162,857,399
1657078854652,76,897,425
1657078854692,114,878,464
1657078854732,192,849,529
1657078854772,186,822,526
1657078854812,112,811,474
1657078854852,104,836,408
1657078854892,162,891,364
1657078854932,215,908,343
1657078854972,264,916,359
1657078855012,268,934,330
1657078855052,273,936,293
1657078855092,274,973,274
1657078855132,200,1117,311
1657078855172,274,1139,375
1657078855212,442,1080,450
1657078855252,398,1059,362
1657078855292,219,1034,263
1657078855332,39,982,281
1657078855372,-11,922,243
1657078855412,51,898,294
1657078855452,107,862,331
1657078855492,121,848,237
1657078855532,73,877,188
1657078855572,80,888,265
1657078855612,215,918,293
1657078855652,282,987,311
1657078855692,243,971,325
1657078855732,243,921,304
1657078855772,221,901,287
1657078855812,211,918,246
1657078855852,205,951,292
1657078855892,156,973,369
1657078855932,173,1024,415
1657078855972,298,1152,306
1657078856012,428,1281,215
1657078856052,406,1216,160
1657078856092,45,958,334
1657078856132,22,855,331
1657078856172,117,793,322
1657078856212,244,918,479
1657078856252,226,948,471
1657078856292,294,948,502
1657078856332,292,904,518
1657078856372,237,866,510
1657078856412,191,859,416
1657078856452,198,860,377
1657078856492,183,850,387
1657078856532,183,893,388
1657078856572,168,912,323
1657078856612,175,966,339
1657078856652,196,997,265
1657078856692,183,1074,219
1657078856732,104,1249,258
1657078856772,225,1163,367
1657078856812,329,1120,358
1657078856852,218,1049,208
1657078856892,186,892,165
1657078856932,80,805,274
1657078856972,-67,811,329
1657078857012,-12,854,392
1657078857052,18,928,458
1657078857092,89,938,420
1657078857132,115,969,340
1657078857172,98,983,291
1657078857212,84,958,242
1657078857252,78,927,253
1657078857292,-22,928,165
1657078857332,60,863,118
1657078857372,-3,772,130
1657078857412,56,802,178
1657078857452,168,1048,179
1657078857492,223,1171,317
1657078857532,210,1150,431
1657078857572,266,1162,514
1657078857612,336,1108,484
1657078857652,403,1203,250
1657078857692,348,1086,145
1657078857732,408,865,135
1657078857772,337,779,98
1657078857812,-11,945,70
1657078857852,529,1372,72
1657078857892,732,1599,468
1657078857932,583,1375,-75
1657078857972,608,1450,-252
1657078858012,1455,1491,-241
1657078858052,-524,1052,-1172
1657078858092,-130,360,207
1657078858132,-36,-275,381
1657078858172,-205,348,-1023
1657078858212,-58,202,-755
1657078858252,-33,497,-1086
1657078858292,46,167,-813
1657078858332,172,166,-835
1657078858372,349,216,-834
1657078858412,1914,470,-1280
1657078858452,45,-252,-982
1657078858492,484,-117,-900
1657078858532,376,39,-1143
1657078858572,228,-103,-770
1657078858612,188,129,-1192
1657078858652,140,-29,-834
1657078858692,-295,-32,-1104
1657078858732,-162,-140,-959
1657078858772,-49,-164,-814
1657078858812,-59,-89,-984
1657078858852,241,-107,-601
1657078858892,268,96,-786
1657078858932,505,387,-823
1657078858972,541,974,-809
1657078859012,210,856,-946
1657078859052,226,722,-820
1657078859092,67,876,-994
1657078859132,204,705,-747
1657078859172,206,603,-730
1657078859212,243,601,-815
1657078859252,174,615,-782
1657078859292,247,646,-773
1657078859332,164,628,-769
1657078859372,243,667,-767
1657078859412,159,593,-787
1657078859452,279,644,-761
1657078859492,277,647,-719
1657078859532,319,686,-682
1657078859572,278,687,-761
1657078859612,211,684,-773
1657078859652,349,703,-713
1657078859692,320,681,-686
1657078859732,329,655,-740
1657078859772,265,670,-739
1657078859812,320,685,-714
1657078859852,318,653,-704
1657078859892,296,660,-725
1657078859932,309,659,-738
1657078859972,217,645,-753
1657078860012,280,676,-711
1657078860052,324,677,-720
1657078860092,183,660,-764
1657078860132,207,624,-717
1657078860172,326,753,-740
1657078860212,213,647,-783
1657078860252,267,661,-769
1657078860292,171,724,-762
1657078860332,198,712,-732
1657078860372,309,671,-631
1657078860412,268,744,-758
1657078860452,419,899,-836
1657078860492,928,960,-864
1657078860532,524,293,-18
1657078860572,487,260,-715
1657078860612,440,49,-295
1657078860652,163,339,-528
1657078860692,126,322,-1132
1657078860732,189,571,-1069
1657078860772,188,531,-1313
1657078860812,55,437,-1320
1657078860852,44,305,-1017
1657078860892,214,341,-837
1657078860932,358,329,-648
1657078860972,515,360,-409
1657078861012,667,636,-546
1657078861052,763,492,-442
1657078861092,1321,1260,-668
1657078861132,1104,848,-634
1657078861172,952,718,-273
1657078861212,913,774,-70
1657078861252,626,557,62
1657078861292,603,501,137
1657078861332,584,614,-1
1657078861372,712,594,-62
1657078861412,693,537,41
1657078861452,581,512,80
1657078861492,532,553,22
1657078861532,511,550,59
1657078861572,515,578,106
1657078861612,464,707,21
1657078861652,426,773,-12
1657078861692,370,865,-1
1657078861732,340,972,13
1657078861772,314,1094,69
1657078861812,304,1140,229
1657078861852,328,1387,383
1657078861892,548,1520,406
1657078861932,793,1487,395
1657078861972,813,1264,345
1657078862012,554,1122,272
1657078862052,226,1018,228
1657078862092,145,920,203
1657078862132,193,852,219
1657078862172,138,772,262
1657078862212,140,773,233
1657078862252,143,852,195
1657078862292,135,897,197
1657078862332,248,967,111
1657078862372,242,961,134
1657078862412,239,912,179
1657078862452,221,924,155
1657078862492,229,919,119
1657078862532,229,905,70
1657078862572,246,918,319
1657078862612,249,953,340
1657078862652,274,1194,188
1657078862692,390,1272,139
1657078862732,496,1222,216
1657078862772,428,1103,274
1657078862812,329,991,231
1657078862852,291,899,301
1657078862892,200,908,325
1657078862932,172,902,326
1657078862972,225,904,383
1657078863012,276,887,436
1657078863052,273,834,498
1657078863092,219,787,523
1657078863132,182,809,422
1657078863172,185,839,360
1657078863212,192,859,358
1657078863252,232,929,314
1657078863292,282,1030,219
1657078863332,218,1169,-61
1657078863372,302,1098,56
1657078863412,347,1095,338
1657078863452,265,1182,402
1657078863492,295,1148,412
1657078863532,341,1014,336
1657078863572,278,962,257
1657078863612,181,964,200
1657078863652,89,915,233
1657078863692,75,868,317
1657078863732,114,807,323
1657078863772,153,745,363
1657078863812,165,730,346
1657078863852,150,797,327
1657078863892,218,914,280
1657078863932,272,1007,232
1657078863972,322,1006,259
1657078864012,328,983,272
1657078864052,300,990,235
1657078864092,268,965,235
1657078864132,269,960,205
1657078864172,242,1044,206
1657078864212,202,1129,305
1657078864252,311,1251,346
1657078864292,489,1282,229
1657078864332,447,1083,289
1657078864372,317,897,342
1657078864412,230,839,346
1657078864452,139,842,294
1657078864492,169,898,347
1657078864532,255,912,412
1657078864572,324,879,506
1657078864612,311,879,493
1657078864652,268,919,373
1657078864692,239,845,320
1657078864732,171,772,373
1657078864772,128,748,365
1657078864812,189,802,359
1657078864852,204,854,359
1657078864892,269,902,352
1657078864932,309,959,281
1657078864972,272,1116,311
1657078865012,200,1298,279
1657078865052,368,1211,385
1657078865092,478,1121,290
1657078865132,395,1078,101
1657078865172,281,1007,110
1657078865212,158,1001,168
1657078865252,141,942,278
1657078865292,149,871,378
1657078865332,131,828,390
1657078865372,124,773,356
1657078865412,144,778,329
1657078865452,172,786,284
1657078865492,219,818,255
1657078865532,251,864,216
1657078865572,291,899,209
1657078865612,332,944,224
1657078865652,387,1015,211
1657078865692,333,1180,266
1657078865732,368,1242,338
1657078865772,463,1262,414
1657078865812,538,1243,344
1657078865852,481,1014,329
1657078865892,339,857,358
1657078865932,191,806,328
1657078865972,144,822,297
1657078866012,213,841,319
1657078866052,264,798,410
1657078866092,276,810,468
1657078866132,276,846,415
1657078866172,271,891,373
1657078866212,314,947,323
1657078866252,363,966,281
1657078866292,298,945,297
1657078866332,272,928,243
1657078866372,277,914,224
1657078866412,281,909,203
1657078866452,293,928,181
1657078866492,305,983,176
1657078866532,266,1047,247
1657078866572,323,1042,312
1657078866612,408,998,265
1657078866652,414,993,140
1657078866692,296,994,133
1657078866732,193,997,242
1657078866772,175,988,293
1657078866812,225,976,309
1657078866852,244,865,335
1657078866892,197,813,322
1657078866932,173,819,261
1657078866972,210,859,220
1657078867012,237,899,206
1657078867052,258,935,189
1657078867092,266,980,215
1657078867132,292,976,223
1657078867172,292,983,259
1657078867212,259,1024,270
1657078867252,215,1109,366
1657078867292,276,1147,409
1657078867332,397,1116,340
1657078867372,427,1004,292
1657078867412,266,920,290
1657078867452,186,872,284
1657078867492,217,854,304
1657078867532,244,895,339
1657078867572,290,898,401
1657078867612,328,873,436
1657078867652,289,887,414
1657078867692,234,888,360
1657078867732,232,895,329
1657078867772,243,909,314
1657078867812,269,909,319
1657078867852,248,907,340
1657078867892,248,930,290
1657078867932,240,910,273
1657078867972,231,937,269
1657078868012,197,1021,232
1657078868052,162,1136,325
1657078868092,292,1153,331
1657078868132,384,1103,308
1657078868172,366,1045,221
1657078868212,294,967,144
1657078868252,158,944,200
1657078868292,63,933,184
1657078868332,81,904,224
1657078868372,142,839,288
1657078868412,162,817,277
1657078868452,164,810,325
1657078868492,211,859,313
1657078868532,281,946,236
1657078868572,343,1005,212
1657078868612,317,964,225
1657078868652,277,966,148
1657078868692,186,1200,-277
1657078868732,318,879,347
1657078868772,283,900,429
1657078868812,328,1423,35
1657078868852,330,1250,309
1657078868892,251,1212,239
1657078868932,430,1109,249
1657078868972,355,1021,152
1657078869012,133,902,155
1657078869052,-19,702,352
1657078869092,90,814,442
1657078869132,284,955,351
1657078869172,360,945,368
1657078869212,282,857,310
1657078869252,229,863,186
1657078869292,164,844,230
1657078869332,231,937,204
1657078869372,269,1044,85
1657078869412,266,1035,31
1657078869452,234,992,8
1657078869492,203,996,2
1657078869532,181,997,52
1657078869572,163,1151,161
1657078869612,247,1242,219
1657078869652,263,1148,213
1657078869692,274,992,239
1657078869732,158,950,52
1657078869772,42,1048,41
1657078869812,47,1112,87
1657078869852,91,1035,211
1657078869892,143,915,283
1657078869932,161,866,210
1657078869972,172,866,130
1657078870012,154,899,88
1657078870052,242,976,19
1657078870092,238,937,63
1657078870132,226,938,47
1657078870172,226,931,-26
1657078870212,189,925,-21
1657078870252,196,986,-46
1657078870292,229,1069,-108
1657078870332,307,1091,77
1657078870372,215,1127,117
1657078870412,255,1094,77
1657078870452,199,1022,197
1657078870492,224,978,224
1657078870532,228,1011,110
1657078870572,246,911,127
1657078870612,217,895,228
1657078870652,193,950,228
1657078870692,236,1064,215
1657078870732,346,1062,151
1657078870772,360,1015,155
1657078870812,264,911,203
1657078870852,206,858,190
1657078870892,236,923,206
1657078870932,295,974,196
1657078870972,309,963,213
1657078871012,253,917,222
1657078871052,243,968,231
1657078871092,225,1005,171
1657078871132,189,1052,110
1657078871172,146,1109,106
1657078871212,207,1200,268
1657078871252,228,1175,291
1657078871292,161,1026,219
1657078871332,-41,948,100
1657078871372,-205,963,233
1657078871412,94,1107,416
1657078871452,144,986,474
1657078871492,71,810,363
1657078871532,84,850,239
1657078871572,60,961,46
1657078871612,191,899,337
1657078871652,204,917,401
1657078871692,206,910,377
1657078871732,184,927,253
1657078871772,220,884,257
1657078871812,212,896,183
1657078871852,253,965,177
1657078871892,276,1091,213
1657078871932,270,1196,351
1657078871972,258,1209,311
1657078872012,255,1173,292
1657078872052,234,1040,262
1657078872092,142,856,268
1657078872132,119,734,343
1657078872172,179,846,337
1657078872212,265,982,331
1657078872252,315,1015,315
1657078872292,295,939,289
1657078872332,231,865,310
1657078872372,196,853,257
1657078872412,220,905,263
1657078872452,279,1008,236
1657078872492,264,1066,216
1657078872532,258,1023,232
1657078872572,234,997,262
1657078872612,194,1000,227
1657078872652,181,978,189
1657078872692,185,929,191
1657078872732,167,880,199
1657078872772,146,928,237
1657078872812,132,1135,264
1657078872852,208,1308,218
1657078872892,207,1042,267
1657078872932,67,734,474
1657078872972,18,712,437
1657078873012,99,874,372
1657078873052,209,947,445
1657078873092,331,945,455
1657078873132,446,900,416
1657078873172,364,909,282
1657078873212,251,953,186
1657078873252,217,969,137
1657078873292,226,992,167
1657078873332,191,984,220
1657078873372,162,986,253
1657078873412,132,994,272
1657078873452,79,1098,315
1657078873492,62,1180,346
1657078873532,124,1135,401
1657078873572,167,1030,444
1657078873612,177,924,413
1657078873652,139,794,339
1657078873692,35,802,325
1657078873732,88,967,354
1657078873772,232,1056,368
1657078873812,286,950,473
1657078873852,290,870,498
1657078873892,254,852,426
1657078873932,225,840,357
1657078873972,249,865,308
1657078874012,353,913,328
1657078874052,397,974,334
1657078874092,494,1059,297
1657078874132,476,1055,320
1657078874172,367,1011,320
1657078874212,298,981,303
1657078874252,204,958,312
1657078874292,57,967,326
1657078874332,46,947,305
1657078874372,83,989,240
1657078874412,42,1005,221
1657078874452,145,967,194
1657078874492,148,947,259
1657078874532,125,945,331
1657078874572,190,961,305
1657078874612,239,925,319
1657078874652,269,871,328
1657078874692,272,862,315
1657078874732,253,897,319
1657078874772,266,935,303
1657078874812,287,937,309
1657078874852,290,985,260
1657078874892,282,1009,246
1657078874932,269,993,244
1657078874972,237,979,247
1657078875012,218,1010,235
1657078875052,237,1033,239
1657078875092,212,1060,328
1657078875132,245,1118,311
1657078875172,283,1074,344
1657078875212,234,964,298
1657078875252,263,852,291
1657078875292,226,773,330
1657078875332,197,807,357
1657078875372,310,950,365
1657078875412,415,993,409
1657078875452,441,999,425
1657078875492,337,994,394
1657078875532,291,996,403
1657078875572,253,968,337
1657078875612,239,931,253
1657078875652,207,902,201
1657078875692,183,854,200
1657078875732,156,820,249
1657078875772,144,889,244
1657078875812,118,1029,280
1657078875852,175,1143,392
1657078875892,264,1228,357
1657078875932,339,1185,261
1657078875972,233,1028,146
1657078876012,65,870,157
1657078876052,-31,879,216
1657078876092,41,930,262
1657078876132,113,939,315
1657078876172,161,886,336
1657078876212,171,855,329
1657078876252,144,863,274
1657078876292,188,908,249
1657078876332,191,963,250
1657078876372,228,978,260
1657078876412,249,974,277
1657078876452,255,984,269
1657078876492,224,1018,235
1657078876532,214,1073,176
1657078876572,178,1167,229
1657078876612,230,1115,353
1657078876652,282,1078,364
1657078876692,315,1058,282
1657078876732,296,973,179
1657078876772,202,886,219
1657078876812,148,890,337
1657078876852,181,939,449
1657078876892,197,894,412
1657078876932,128,839,407
1657078876972,114,714,416
1657078877012,138,697,442
1657078877052,218,827,442
1657078877092,272,990,407
1657078877132,337,1061,404
1657078877172,334,1044,369
1657078877212,291,995,339
1657078877252,255,954,260
1657078877292,176,967,155
1657078877332,103,1195,178
1657078877372,224,1181,323
1657078877412,383,1060,419
1657078877452,336,1016,237
1657078877492,168,988,236
1657078877532,84,948,292
1657078877572,144,913,383
1657078877612,213,857,446
1657078877652,210,814,411
1657078877692,206,858,340
1657078877732,223,913,271
1657078877772,239,945,230
1657078877812,274,1000,233
1657078877852,244,923,285
1657078877892,218,892,312
1657078877932,193,883,283
1657078877972,181,877,310
1657078878012,214,884,301
1657078878052,212,938,277
1657078878092,183,1074,331
1657078878132,213,1147,396
1657078878172,355,1152,373
1657078878212,417,1001,336
1657078878252,305,918,329
1657078878292,208,924,294
1657078878332,168,964,284
1657078878372,201,976,314
1657078878412,260,934,382
1657078878452,235,870,449
1657078878492,230,839,414
1657078878532,180,861,374
1657078878572,183,880,304
1657078878612,213,922,274
1657078878652,233,892,284
1657078878692,211,892,300
1657078878732,201,910,252
1657078878772,167,1012,264
1657078878812,125,1139,339
1657078878852,295,1130,416
1657078878892,392,1108,395
1657078878932,283,1050,219
1657078878972,27,1037,93
1657078879012,-47,979,157
1657078879052,8,961,271
1657078879092,67,923,288
1657078879132,94,871,286
1657078879172,114,853,262
1657078879212,128,864,271
1657078879252,174,893,244
1657078879292,201,891,261
1657078879332,222,885,252
1657078879372,241,886,228
1657078879412,217,931,218
1657078879452,214,1006,235
1657078879492,223,1146,289
1657078879532,281,1268,316
1657078879572,412,1278,313
1657078879612,530,1120,297
1657078879652,311,950,313
1657078879692,218,930,299
1657078879732,146,914,305
1657078879772,207,899,327
1657078879812,228,862,401
1657078879852,224,811,472
1657078879892,213,809,457
1657078879932,178,843,410
1657078879972,204,887,363
1657078880012,249,922,318
1657078880052,266,951,287
1657078880092,250,950,260
1657078880132,210,957,239
1657078880172,158,1021,243
1657078880212,85,1125,283
1657078880252,208,1108,374
1657078880292,321,1040,341
1657078880332,374,983,203
1657078880372,182,949,173
1657078880412,56,944,274
1657078880452,89,950,325
1657078880492,141,917,381
1657078880532,159,894,364
1657078880572,167,917,288
1657078880612,179,946,230
1657078880652,191,936,211
1657078880692,189,930,170
1657078880732,193,958,158
1657078880772,206,951,183
1657078880812,249,923,178
1657078880852,248,905,197
1657078880892,246,959,226
1657078880932,237,1019,286
1657078880972,222,1096,345
1657078881012,304,1119,318
1657078881052,348,1072,343
1657078881092,320,960,353
1657078881132,244,927,303
1657078881172,180,938,315
1657078881212,198,1036,261
1657078881252,256,968,366
1657078881292,238,883,431
1657078881332,216,883,391
1657078881372,226,856,390
1657078881412,203,839,375
1657078881452,241,870,314
1657078881492,260,896,346
1657078881532,276,944,287
1657078881572,295,929,276
1657078881612,280,931,313
1657078881652,267,966,248
1657078881692,162,1122,260
1657078881732,169,1195,272
1657078881772,308,1052,407
1657078881812,332,939,362
1657078881852,217,951,223
1657078881892,113,1008,178
1657078881932,72,975,254
1657078881972,104,928,330
1657078882012,129,853,331
1657078882052,107,860,296
1657078882092,124,912,240
1657078882132,160,926,267
1657078882172,198,924,258
1657078882212,216,952,239
1657078882252,232,956,217
1657078882292,228,940,190
1657078882332,234,919,211
1657078882372,258,922,183
1657078882412,254,965,196
1657078882452,251,1068,206
1657078882492,215,1193,314
1657078882532,333,1227,318
1657078882572,357,1146,394
1657078882612,346,1039,328
1657078882652,304,914,289
1657078882692,212,794,351
1657078882732,119,779,360
1657078882772,119,866,333
1657078882812,265,879,385
1657078882852,312,887,417
1657078882892,323,924,379
1657078882932,303,947,325
1657078882972,298,967,297
1657078883012,322,976,242
1657078883052,303,977,175
1657078883092,277,962,173
1657078883132,251,921,171
1657078883172,239,892,217
1657078883212,239,910,240
1657078883252,198,1008,313
1657078883292,203,1117,428
1657078883332,390,1126,367
1657078883372,498,1058,225
1657078883412,368,953,139
1657078883452,181,924,196
1657078883492,106,907,277
1657078883532,165,928,370
1657078883572,240,871,398
1657078883612,273,844,385
1657078883652,226,864,331
1657078883692,226,876,295
1657078883732,255,921,231
1657078883772,232,939,207
1657078883812,241,964,190
1657078883852,261,966,187
1657078883892,268,955,179
1657078883932,272,983,137
1657078883972,240,996,150
1657078884012,204,1053,233
1657078884052,237,1079,324
1657078884092,278,1140,311
1657078884132,306,1111,293
1657078884172,304,989,267
1657078884212,289,871,245
1657078884252,186,845,250
1657078884292,126,906,260
1657078884332,180,975,324
1657078884372,292,945,414
1657078884412,354,894,460
1657078884452,280,846,464
1657078884492,209,868,344
1657078884532,194,913,259
1657078884572,265,942,211
1657078884612,300,954,202
1657078884652,313,939,217
1657078884692,270,934,218
1657078884732,246,942,197
1657078884772,247,1031,194
1657078884812,196,1217,271
1657078884852,276,1246,436
1657078884892,328,1235,408
1657078884932,250,1069,242
1657078884972,73,1009,128
1657078885012,-136,930,153
1657078885052,-138,880,285
1657078885092,-38,800,376
1657078885132,31,799,367
1657078885172,101,830,334
1657078885212,141,876,264
1657078885252,188,911,236
1657078885292,233,957,189
1657078885332,262,1013,187
1657078885372,278,1034,197
1657078885412,317,1031,201
1657078885452,326,1018,190
1657078885492,293,994,160
1657078885532,275,977,157
1657078885572,223,1041,192
1657078885612,194,1132,245
1657078885652,237,1185,324
1657078885692,320,1197,344
1657078885732,361,1083,246
1657078885772,304,941,256
1657078885812,171,893,304
1657078885852,94,881,334
1657078885892,189,913,372
1657078885932,239,863,406
1657078885972,284,821,451
1657078886012,274,835,409
1657078886052,244,843,326
1657078886092,250,898,293
1657078886132,242,939,223
1657078886172,257,919,245
1657078886212,246,893,294
1657078886252,251,915,227
1657078886292,227,959,205
1657078886332,253,1023,142
1657078886372,171,1172,148
1657078886412,140,1240,312
1657078886452,284,1157,377
1657078886492,293,1058,303
1657078886532,167,1033,181
1657078886572,36,987,248
1657078886612,-32,922,249
1657078886652,30,874,284
1657078886692,46,846,327
1657078886732,57,870,269
1657078886772,60,886,290
1657078886812,79,956,256
1657078886852,110,967,275
1657078886892,150,967,239
1657078886932,147,970,222
1657078886972,185,967,235
1657078887012,283,939,420
1657078887052,280,835,148
1657078887092,308,967,267
1657078887132,311,945,298
1657078887172,314,1059,519
1657078887212,436,1073,534
1657078887252,491,1037,495
1657078887292,390,984,488
1657078887332,264,852,421
1657078887372,186,739,448
1657078887412,200,747,346
1657078887452,233,979,518
1657078887492,263,1004,475
1657078887532,381,956,512
1657078887572,471,911,507
1657078887612,453,878,448
1657078887652,350,853,393
1657078887692,275,876,342
1657078887732,253,822,285
1657078887772,261,787,355
1657078887812,255,770,392
1657078887852,262,759,379
1657078887892,262,781,346
1657078887932,315,881,298
1657078887972,220,1018,266
1657078888012,161,1172,345
1657078888052,268,1283,394
1657078888092,397,1194,299
1657078888132,325,1036,259
1657078888172,174,925,281
1657078888212,91,865,312
1657078888252,115,871,270
1657078888292,172,848,300
1657078888332,204,857,346
1657078888372,230,887,348
1657078888412,260,932,333
1657078888452,277,917,274
1657078888492,269,948,235
1657078888532,248,957,203
1657078888572,248,960,184
1657078888612,244,971,204
1657078888652,245,956,208
1657078888692,232,961,188
1657078888732,222,970,202
1657078888772,204,1036,240
1657078888812,200,1076,337
1657078888852,252,1154,324
1657078888892,274,1137,321
1657078888932,279,989,311
1657078888972,258,871,283
1657078889012,218,814,280
1657078889052,153,868,274
1657078889092,217,964,348
1657078889132,308,971,416
1657078889172,394,948,455
1657078889212,316,917,420
1657078889252,257,896,346
1657078889292,211,884,308
1657078889332,179,878,317
1657078889372,183,869,341
1657078889412,192,914,313
1657078889452,243,909,321
1657078889492,276,944,297
1657078889532,279,993,217
1657078889572,241,1014,202
1657078889612,175,1132,230
1657078889652,134,1238,279
1657078889692,305,1116,365
1657078889732,298,935,278
1657078889772,140,928,272
1657078889812,47,969,229
1657078889852,146,961,301
1657078889892,159,873,372
1657078889932,164,860,382
1657078889972,143,863,295
1657078890012,169,925,276
1657078890052,214,933,271
1657078890092,246,944,238
1657078890132,191,947,222
1657078890172,199,945,225
1657078890212,185,932,227
1657078890252,157,914,245
1657078890292,184,942,240
1657078890332,190,1025,244
1657078890372,162,1135,335
1657078890412,275,1126,386
1657078890452,335,1083,378
1657078890492,316,1011,292
1657078890532,225,918,280
1657078890572,159,867,328
1657078890612,119,938,324
1657078890652,175,987,391
1657078890692,243,950,474
1657078890732,266,864,522
1657078890772,213,818,512
1657078890812,184,868,352
1657078890852,170,885,289
1657078890892,212,914,280
1657078890932,259,929,282
1657078890972,263,911,320
1657078891012,265,921,298
1657078891052,277,928,283
1657078891092,287,940,263
1657078891132,278,978,238
1657078891172,263,1037,261
1657078891212,193,1091,344
1657078891252,247,1092,436
1657078891292,332,1105,398
1657078891332,379,1029,193
1657078891372,126,933,157
1657078891412,-55,951,234
1657078891452,-38,973,380
1657078891492,29,947,480
1657078891532,50,890,490
1657078891572,20,871,405
1657078891612,18,863,347
1657078891652,122,945,270
1657078891692,238,1083,123
1657078891732,160,953,201
1657078891772,258,982,182
1657078891812,258,943,235
1657078891852,246,911,241
1657078891892,273,888,220
1657078891932,256,927,256
1657078891972,231,1014,234
1657078892012,223,1093,265
1657078892052,293,1135,300
1657078892092,364,1164,315
1657078892132,324,1031,345
1657078892172,246,881,359
1657078892212,194,859,366
1657078892252,214,876,361
1657078892292,227,980,383
1657078892332,297,903,469
1657078892372,301,838,531
1657078892412,254,819,474
1657078892452,217,801,447
1657078892492,203,824,405
1657078892532,217,843,363
1657078892572,276,943,379
1657078892612,297,928,386
1657078892652,291,922,367
1657078892692,275,916,320
1657078892732,252,907,240
1657078892772,230,914,217
1657078892812,246,935,203
1657078892852,239,985,242
1657078892892,163,1240,309
1657078892932,230,1188,397
1657078892972,339,985,480
1657078893012,285,941,403
1657078893052,127,951,315
1657078893092,89,869,368
1657078893132,140,844,458
1657078893172,182,802,480
1657078893212,113,755,451
1657078893252,148,832,428
1657078893292,185,931,389
1657078893332,253,1022,420
1657078893372,257,960,441
1657078893412,203,925,417
1657078893452,176,923,358
1657078893492,133,953,265
1657078893532,28,996,156
1657078893572,50,905,342
1657078893612,172,915,427
1657078893652,197,924,456
1657078893692,147,1003,445
1657078893732,190,1085,476
1657078893772,322,1098,443
1657078893812,309,1008,411
1657078893852,-60,735,380
1657078893892,17,813,356
1657078893932,145,954,323
1657078893972,293,1050,362
1657078894012,364,923,492
1657078894052,314,880,517
1657078894092,249,837,509
1657078894132,215,844,473
1657078894172,237,853,419
1657078894212,236,834,480
1657078894252,265,924,412
1657078894292,276,924,331
1657078894332,253,874,362
1657078894372,217,913,291
1657078894412,153,935,260
1657078894452,7,1004,245
1657078894492,-79,1108,315
1657078894532,183,1086,343
1657078894572,334,1003,348
1657078894612,214,1047,314
1657078894652,67,1059,286
1657078894692,125,979,356
1657078894732,128,903,352
1657078894772,118,879,338
1657078894812,129,886,280
1657078894852,121,911,269
1657078894892,156,935,292
1657078894932,146,920,292
1657078894972,160,937,275
1657078895012,208,937,276
1657078895052,228,1010,208
1657078895092,240,1002,127
1657078895132,211,944,177
1657078895172,254,881,218
1657078895212,226,952,218
1657078895252,124,1105,210
1657078895292,168,1245,352
1657078895332,335,1205,422
1657078895372,407,1024,457
1657078895412,284,907,341
1657078895452,141,856,344
1657078895492,121,870,301
1657078895532,239,914,285
1657078895572,275,824,399
1657078895612,278,806,454
1657078895652,297,836,406
1657078895692,282,841,404
1657078895732,331,921,414
1657078895772,303,966,427
1657078895812,338,866,400
1657078895852,295,951,412
1657078895892,325,945,374
1657078895932,334,898,468
1657078895972,325,847,475
1657078896012,286,854,468
1657078896052,212,937,552
1657078896092,315,970,538
1657078896132,365,910,475
1657078896172,331,925,398
1657078896212,191,1002,303
1657078896252,131,893,474
1657078896292,152,826,567
1657078896332,184,741,514
1657078896372,196,708,481
1657078896412,223,759,385
1657078896452,241,827,310
1657078896492,259,897,283
1657078896532,316,911,300
1657078896572,343,949,319
1657078896612,358,1002,315
1657078896652,366,1039,275
1657078896692,373,1067,229
1657078896732,320,1044,214
1657078896772,237,1028,210
1657078896812,177,997,281
1657078896852,152,945,365
1657078896892,233,991,369
1657078896932,292,1007,339
1657078896972,339,935,294
1657078897012,273,853,286
1657078897052,180,871,314
1657078897092,196,961,315
1657078897132,267,1012,357
1657078897172,347,919,428
1657078897212,312,794,500
1657078897252,222,767,484
1657078897292,222,882,348
1657078897332,263,954,307
1657078897372,306,979,321
1657078897412,333,939,357
1657078897452,329,925,355
1657078897492,278,950,282
1657078897532,253,960,274
1657078897572,253,965,279
1657078897612,247,1002,261
1657078897652,194,1129,276
1657078897692,180,1256,354
1657078897732,321,1111,417
1657078897772,281,976,264
1657078897812,138,874,173
1657078897852,-19,885,219
1657078897892,14,923,341
1657078897932,107,907,406
1657078897972,179,841,419
1657078898012,107,848,222
1657078898052,98,863,180
1657078898092,154,869,234
1657078898132,221,909,260
1657078898172,187,946,301
1657078898212,206,938,300
1657078898252,217,958,251
1657078898292,199,1002,232
1657078898332,221,1004,237
1657078898372,236,1008,221
1657078898412,229,1033,157
1657078898452,195,1098,212
1657078898492,212,1207,315
1657078898532,305,1274,297
1657078898572,343,1216,283
1657078898612,257,1004,273
1657078898652,189,841,360
1657078898692,108,805,420
1657078898732,122,875,446
1657078898772,190,913,499
1657078898812,254,844,521
1657078898852,263,835,502
1657078898892,197,820,430
1657078898932,139,823,386
1657078898972,127,803,386
1657078899012,208,814,366
1657078899052,242,907,365
1657078899092,259,959,245
1657078899132,302,1030,281
1657078899172,337,1050,275
1657078899212,329,1068,286
1657078899252,257,1091,238
1657078899292,122,1227,294
1657078899332,171,1107,384
1657078899372,264,943,404
1657078899412,257,886,278
1657078899452,128,891,190
1657078899492,-20,927,266
1657078899532,-43,976,366
1657078899572,55,936,444
1657078899612,86,823,500
1657078899652,57,839,380
1657078899692,88,889,257
1657078899732,164,912,233
1657078899772,216,915,222
1657078899812,270,910,230
1657078899852,295,922,228
1657078899892,293,955,230
1657078899932,329,1027,226
1657078899972,318,1105,248
1657078900012,280,1226,389
1657078900052,392,1268,442
1657078900092,505,1204,444
1657078900132,336,1018,417
1657078900172,225,879,356
1657078900212,120,790,358
1657078900252,39,806,355
1657078900292,97,860,369
1657078900332,194,892,450
1657078900372,280,881,420
1657078900412,257,841,476
1657078900452,192,848,386
1657078900492,184,875,272
1657078900532,177,905,231
1657078900572,204,946,194
1657078900612,239,954,219
1657078900652,267,957,267
1657078900692,284,991,265
1657078900732,278,1056,268
1657078900772,215,1183,272
1657078900812,197,1217,328
1657078900852,266,1086,343
1657078900892,229,957,266
1657078900932,150,863,229
1657078900972,-14,896,217
1657078901012,28,965,430
1657078901052,136,933,502
1657078901092,164,884,499
1657078901132,128,764,530
1657078901172,110,720,468
1657078901212,160,823,522
1657078901252,247,836,532
1657078901292,230,734,552
1657078901332,237,749,620
1657078901372,229,718,622
1657078901412,275,718,597
1657078901452,249,735,658
1657078901492,219,809,843
1657078901532,273,750,968
1657078901572,425,748,948
1657078901612,445,742,860
1657078901652,335,642,772
1657078901692,206,541,726
1657078901732,207,601,751
1657078901772,208,563,719
1657078901812,280,444,719
1657078901852,249,554,860
1657078901892,244,479,771
1657078901932,212,579,674
1657078901972,231,733,623
1657078902012,243,826,532
1657078902052,325,983,448
1657078902092,378,1026,351
1657078902132,349,920,288
1657078902172,341,913,262
1657078902212,336,895,259
1657078902252,337,903,236
1657078902292,263,1028,258
1657078902332,244,1170,340
1657078902372,399,1044,309
1657078902412,469,923,286
1657078902452,246,928,239
1657078902492,104,964,288
1657078902532,150,943,349
1657078902572,229,952,374
1657078902612,270,898,354
1657078902652,256,860,299
1657078902692,229,858,266
1657078902732,240,911,219
1657078902772,235,900,263
1657078902812,261,910,254
1657078902852,257,956,289
1657078902892,281,881,223
1657078902932,278,905,228
1657078902972,293,950,216
1657078903012,268,1089,300
1657078903052,372,1162,332
1657078903092,493,1151,341
1657078903132,502,1043,312
1657078903172,335,935,286
1657078903212,229,888,344
1657078903252,157,897,349
1657078903292,239,875,366
1657078903332,269,807,440
1657078903372,261,795,460
1657078903412,258,830,429
1657078903452,280,886,383
1657078903492,283,923,328
1657078903532,298,944,248
1657078903572,286,942,223
1657078903612,261,883,282
1657078903652,254,898,234
1657078903692,249,980,243
1657078903732,164,1127,332
1657078903772,230,1254,387
1657078903812,375,1167,363
1657078903852,422,1037,327
1657078903892,254,952,227
1657078903932,127,907,230
1657078903972,53,905,280
1657078904012,104,905,360
1657078904052,99,877,376
1657078904092,104,839,373
1657078904132,75,857,305
1657078904172,-109,974,287
1657078904212,220,932,425
1657078904252,29,816,384
1657078904292,6,829,608
1657078904332,121,871,350
1657078904372,67,792,419
1657078904412,209,935,415
1657078904452,242,1069,323
1657078904492,256,1247,275
1657078904532,255,1423,334
1657078904572,354,1363,380
1657078904612,381,1221,413
1657078904652,267,1118,258
1657078904692,168,947,260
1657078904732,43,824,366
1657078904772,-44,790,470
1657078904812,15,864,742
1657078904852,71,680,753
1657078904892,137,765,911
1657078904932,171,592,934
1657078904972,67,610,849
1657078905012,35,691,726
1657078905052,13,689,640
1657078905092,36,686,606
1657078905132,32,693,662
1657078905172,135,729,659
1657078905212,78,794,731
1657078905252,18,871,860
1657078905292,107,839,803
1657078905332,131,949,752
1657078905372,-372,738,440
1657078905412,-526,706,570
1657078905452,-90,682,982
1657078905492,-62,572,1174
1657078905532,-131,550,955
1657078905572,35,631,828
1657078905612,175,750,755
1657078905652,178,805,656
1657078905692,90,874,529
1657078905732,-82,788,462
1657078905772,252,906,480
1657078905812,284,1071,476
1657078905852,92,1076,364
1657078905892,-51,956,266
1657078905932,60,949,314
1657078905972,73,1309,456
1657078906012,157,1346,389
1657078906052,246,1231,453
1657078906092,200,1181,384
1657078906132,92,1015,414
1657078906172,97,950,416
1657078906212,-10,871,388
1657078906252,-75,797,357
1657078906292,53,792,363
1657078906332,233,922,376
1657078906372,255,854,378
1657078906412,290,911,358
1657078906452,254,911,257
1657078906492,174,859,259
1657078906532,232,864,170
1657078906572,291,872,152
1657078906612,359,890,171
1657078906652,374,946,220
1657078906692,399,1025,223
1657078906732,413,1034,274
1657078906772,454,1056,265
1657078906812,465,1168,285
1657078906852,437,1075,318
1657078906892,403,998,368
1657078906932,285,1056,273
1657078906972,254,1086,222
1657078907012,140,952,293
1657078907052,3,868,450
1657078907092,54,844,489
1657078907132,87,812,487
1657078907172,86,792,407
1657078907212,99,861,308
1657078907252,106,915,222
1657078907292,203,966,169
1657078907332,226,998,205
1657078907372,289,957,194
1657078907412,286,989,159
1657078907452,246,1003,152
1657078907492,252,978,168
1657078907532,285,957,190
1657078907572,306,982,177
1657078907612,259,1045,213
1657078907652,252,1115,298
1657078907692,283,1159,337
1657078907732,256,1213,406
1657078907772,238,1111,385
1657078907812,213,981,331
1657078907852,137,846,325
1657078907892,105,826,363
1657078907932,109,880,377
1657078907972,139,904,443
1657078908012,209,880,496
1657078908052,236,849,492
1657078908092,214,829,436
1657078908132,232,873,367
1657078908172,234,887,366
1657078908212,266,882,366
1657078908252,311,955,347
1657078908292,295,898,388
1657078908332,271,852,421
1657078908372,315,881,385
1657078908412,350,914,281
1657078908452,301,952,170
1657078908492,265,972,111
1657078908532,278,995,160
1657078908572,299,982,228
1657078908612,233,1078,372
1657078908652,312,1104,390
1657078908692,342,1095,351
1657078908732,234,1050,242
1657078908772,140,946,173
1657078908812,15,903,240
1657078908852,-46,896,311
1657078908892,20,927,371
1657078908932,113,905,385
1657078908972,154,890,410
1657078909012,167,953,246
1657078909052,189,958,187
1657078909092,208,881,356
1657078909132,264,845,416
1657078909172,269,892,298
1657078909212,306,940,271
1657078909252,327,972,203
1657078909292,333,1018,189
1657078909332,344,1031,222
1657078909372,386,1029,236
1657078909412,296,1082,294
1657078909452,250,1220,387
1657078909492,407,1255,326
1657078909532,405,1092,379
1657078909572,292,949,358
1657078909612,184,876,348
1657078909652,78,784,406
1657078909692,74,758,435
1657078909732,235,776,440
1657078909772,335,839,481
1657078909812,346,838,454
1657078909852,309,837,420
1657078909892,271,868,377
1657078909932,266,889,314
1657078909972,302,967,280
1657078910012,271,939,142
1657078910052,298,942,169
1657078910092,297,916,239
1657078910132,260,933,266
1657078910172,227,1085,293
1657078910212,200,1209,387
1657078910252,301,1155,455
1657078910292,360,1045,402
1657078910332,342,1010,274
1657078910372,181,962,272
1657078910412,101,943,271
1657078910452,123,903,251
1657078910492,146,875,279
1657078910532,160,853,286
1657078910572,151,864,290
1657078910612,155,880,292
1657078910652,190,897,306
1657078910692,195,902,291
1657078910732,193,929,292
1657078910772,228,974,259
1657078910812,268,990,250
1657078910852,287,961,232
1657078910892,287,920,239
1657078910932,281,956,212
1657078910972,270,996,234
1657078911012,234,1074,302
1657078911052,267,1122,300
1657078911092,354,1093,303
1657078911132,394,1019,274
1657078911172,264,944,285
1657078911212,153,949,332
1657078911252,135,985,364
1657078911292,205,956,428
1657078911332,243,921,462
1657078911372,224,871,446
1657078911412,216,817,438
1657078911452,204,867,399
1657078911492,219,884,363
1657078911532,247,838,391
1657078911572,249,837,381
1657078911612,249,915,353
1657078911652,265,941,266
1657078911692,262,960,252
1657078911732,254,992,248
1657078911772,153,1159,275
1657078911812,200,1188,303
1657078911852,381,1042,282
1657078911892,353,986,210
1657078911932,175,1022,169
1657078911972,80,994,265
1657078912012,110,959,383
1657078912052,117,913,452
1657078912092,120,866,437
1657078912132,81,861,361
1657078912172,89,876,309
1657078912212,119,918,243
1657078912252,179,924,229
1657078912292,197,913,255
1657078912332,208,933,267
1657078912372,235,954,234
1657078912412,265,944,241
1657078912452,266,945,230
1657078912492,262,931,254
1657078912532,249,985,284
1657078912572,175,1101,357
1657078912612,268,1072,419
1657078912652,355,1047,409
1657078912692,337,1029,302
1657078912732,255,946,272
1657078912772,183,942,286
1657078912812,207,969,274
1657078912852,288,926,372
1657078912892,323,873,452
1657078912932,315,833,477
1657078912972,292,857,410
1657078913012,281,882,381
1657078913052,277,911,345
1657078913092,299,910,341
1657078913132,305,890,336
1657078913172,278,889,308
1657078913212,258,901,280
1657078913252,255,924,258
1657078913292,273,939,232
1657078913332,276,990,224
1657078913372,221,1168,270
1657078913412,281,1169,327
1657078913452,344,1129,337
1657078913492,343,999,222
1657078913532,230,940,205
1657078913572,80,944,229
1657078913612,101,957,251
1657078913652,169,912,303
1657078913692,200,853,322
1657078913732,188,845,271
1657078913772,185,877,220
1657078913812,201,894,208
1657078913852,209,893,218
1657078913892,228,892,247
1657078913932,220,910,256
1657078913972,236,940,254
1657078914012,280,971,197
1657078914052,293,983,184
1657078914092,286,1013,202
1657078914132,265,1093,250
1657078914172,274,1128,375
1657078914212,374,1153,315
1657078914252,453,1163,218
1657078914292,409,1011,193
1657078914332,328,928,244
1657078914372,238,867,272
1657078914412,199,863,333
1657078914452,255,934,431
1657078914492,340,937,464
1657078914532,397,882,507
1657078914572,317,830,515
1657078914612,233,825,440
1657078914652,278,722,632
1657078914692,227,802,593
1657078914732,141,974,187
1657078914772,149,1007,13
1657078914812,224,964,71
1657078914852,254,963,160
1657078914892,244,925,202
1657078914932,316,861,405
1657078914972,277,927,317
1657078915012,173,1182,296
1657078915052,266,1878,-660
1657078915092,478,1301,363
1657078915132,448,1032,359
1657078915172,321,1092,231
1657078915212,147,1000,312
1657078915252,38,905,390
1657078915292,98,834,383
1657078915332,90,782,353
1657078915372,40,762,278
1657078915412,36,796,234
1657078915452,101,792,336
1657078915492,148,828,351
1657078915532,264,847,128
1657078915572,242,902,385
1657078915612,281,925,397
1657078915652,334,924,429
1657078915692,342,1081,275
1657078915732,387,1160,301
1657078915772,375,1210,280
1657078915812,349,1286,282
1657078915852,398,1243,144
1657078915892,423,1155,150
1657078915932,343,1041,148
1657078915972,190,925,203
1657078916012,183,893,321
1657078916052,120,881,381
1657078916092,177,942,486
1657078916132,248,889,571
1657078916172,279,824,619
1657078916212,222,837,585
1657078916252,191,829,474
1657078916292,147,843,439
1657078916332,164,893,387
1657078916372,230,902,333
1657078916412,248,875,343
1657078916452,251,902,327
1657078916492,221,956,222
1657078916532,274,967,185
1657078916572,289,988,168
1657078916612,285,1019,227
1657078916652,228,1132,274
1657078916692,189,1198,370
1657078916732,305,1100,291
1657078916772,324,996,231
1657078916812,268,961,183
1657078916852,182,937,227
1657078916892,144,961,284
1657078916932,181,927,393
1657078916972,241,845,422
1657078917012,225,798,384
1657078917052,177,840,330
1657078917092,161,912,267
1657078917132,178,929,299
1657078917172,218,933,301
1657078917212,220,930,273
1657078917252,209,944,266
1657078917292,197,1012,170
1657078917332,191,1004,115
1657078917372,195,954,250
1657078917412,173,1011,322
1657078917452,143,1094,347
1657078917492,230,1128,400
1657078917532,345,1124,365
1657078917572,388,1059,313
1657078917612,310,918,292
1657078917652,242,851,307
1657078917692,172,856,313
1657078917732,204,920,306
1657078917772,303,929,381
1657078917812,342,919,424
1657078917852,336,897,472
1657078917892,287,947,423
1657078917932,248,976,366
1657078917972,197,938,358
1657078918012,174,895,362
1657078918052,178,855,322
1657078918092,186,835,295
1657078918132,199,845,288
1657078918172,221,889,279
1657078918212,259,988,259
1657078918252,252,1044,231
1657078918292,142,1175,351
1657078918332,227,1150,406
1657078918372,360,1053,381
1657078918412,328,1003,268
1657078918452,223,964,183
1657078918492,66,976,224
1657078918532,-10,931,266
1657078918572,39,908,360
1657078918612,111,825,399
1657078918652,117,787,388
1657078918692,140,837,349
1657078918732,175,863,334
1657078918772,212,905,344
1657078918812,258,933,323
1657078918852,295,960,302
1657078918892,270,985,244
1657078918932,232,979,236
1657078918972,262,977,224
1657078919012,262,1003,227
1657078919052,204,1164,289
1657078919092,269,1235,333
1657078919132,357,1245,361
1657078919172,375,1088,336
1657078919212,286,940,315
1657078919252,191,842,326
1657078919292,135,838,371
1657078919332,241,899,430
1657078919372,269,868,471
1657078919412,308,809,546
1657078919452,279,801,539
1657078919492,276,813,441
1657078919532,272,835,411
1657078919572,311,876,374
1657078919612,390,907,372
1657078919652,413,931,305
1657078919692,322,931,223
1657078919732,246,883,232
1657078919772,227,883,205
1657078919812,227,934,184
1657078919852,159,1085,233
1657078919892,196,1112,334
1657078919932,284,1133,341
1657078919972,348,1139,231
1657078920012,357,1086,130
1657078920052,222,1029,193
1657078920092,175,1035,276
1657078920132,138,962,373
1657078920172,126,839,447
1657078920212,90,747,438
1657078920252,59,769,458
1657078920292,141,840,383
1657078920332,169,902,298
1657078920372,214,914,253
1657078920412,116,897,339
1657078920452,200,914,274
1657078920492,223,927,324
1657078920532,257,979,338
1657078920572,316,1019,278
1657078920612,352,1034,215
1657078920652,296,1067,218
1657078920692,227,1164,284
1657078920732,317,1190,295
1657078920772,417,1121,276
1657078920812,352,1053,259
1657078920852,262,981,248
1657078920892,215,908,317
1657078920932,155,916,387
1657078920972,155,954,485
1657078921012,219,855,702
1657078921052,376,794,770
1657078921092,372,867,596
1657078921132,219,890,454
1657078921172,143,904,336
1657078921212,111,902,246
1657078921252,108,905,226
1657078921292,147,894,264
1657078921332,170,879,303
1657078921372,174,838,348
1657078921412,167,850,310
1657078921452,149,1008,279
1657078921492,97,1208,298
1657078921532,234,1223,287
1657078921572,365,1199,248
1657078921612,237,1153,269
1657078921652,87,1093,285
1657078921692,27,960,336
1657078921732,57,888,262
1657078921772,103,806,503
1657078921812,167,814,388
1657078921852,188,840,389
1657078921892,205,870,359
1657078921932,240,916,311
1657078921972,243,954,291
1657078922012,241,976,253
1657078922052,241,998,200
1657078922092,234,971,198
1657078922132,192,935,205
1657078922172,226,961,238
1657078922212,185,941,258
1657078922252,131,1092,277
1657078922292,206,1124,354
1657078922332,315,1144,311
1657078922372,358,1119,269
1657078922412,330,1012,228
1657078922452,253,895,274
1657078922492,163,839,332
1657078922532,96,875,374
1657078922572,193,959,419
1657078922612,264,945,516
1657078922652,356,906,558
1657078922692,327,838,521
1657078922732,206,862,448
1657078922772,171,903,376
1657078922812,171,833,334
1657078922852,123,801,333
1657078922892,126,813,323
1657078922932,193,873,303
1657078922972,228,923,273
1657078923012,253,994,227
1657078923052,300,1057,206
1657078923092,302,1168,157
1657078923132,224,1350,192
1657078923172,363,1223,319
1657078923212,524,1050,385
1657078923252,370,1069,332
1657078923292,169,1109,269
1657078923332,4,1034,346
1657078923372,-29,899,434
1657078923412,-8,796,493
1657078923452,23,768,427
1657078923492,30,804,330
1657078923532,71,877,272
1657078923572,107,947,190
1657078923612,147,967,208
1657078923652,178,939,249
1657078923692,206,905,250
1657078923732,218,869,256
1657078923772,247,863,229
1657078923812,286,910,219
1657078923852,307,990,246
1657078923892,321,1146,306
1657078923932,315,1217,378
1657078923972,398,1236,389
1657078924012,442,1218,330
1657078924052,384,1094,269
1657078924092,273,937,289
1657078924132,126,832,312
1657078924172,79,855,321
1657078924212,110,909,327
1657078924252,211,866,414
1657078924292,252,856,492
1657078924332,233,820,483
1657078924372,217,793,468
1657078924412,233,870,388
1657078924452,261,899,342
1657078924492,296,909,326
1657078924532,318,916,297
1657078924572,308,940,253
1657078924612,295,957,204
1657078924652,285,981,169
1657078924692,271,1005,192
1657078924732,204,1075,296
1657078924772,219,1109,396
1657078924812,348,1073,352
1657078924852,344,1063,219
1657078924892,172,1090,81
1657078924932,-10,1045,151
1657078924972,-6,1004,342
1657078925012,83,926,445
1657078925052,91,815,557
1657078925092,66,723,528
1657078925132,103,790,406
1657078925172,156,869,363
1657078925212,185,934,295
1657078925252,212,990,228
1657078925292,230,995,192
1657078925332,276,959,202
1657078925372,272,966,207
1657078925412,272,1005,203
1657078925452,204,1101,285
1657078925492,233,1202,358
1657078925532,345,1219,325
1657078925572,364,1088,354
1657078925612,169,966,358
1657078925652,153,845,356
1657078925692,109,837,400
1657078925732,166,932,365
1657078925772,242,926,391
1657078925812,287,874,452
1657078925852,281,829,446
1657078925892,232,821,392
1657078925932,219,853,309
1657078925972,261,886,324
1657078926012,303,916,384
1657078926052,343,967,350
1657078926092,380,992,349
1657078926132,357,976,341
1657078926172,338,961,313
1657078926212,416,986,272
1657078926252,511,1027,219
1657078926292,530,972,256
1657078926332,365,942,313
1657078926372,284,1013,229
1657078926412,322,945,287
1657078926452,273,1005,352
1657078926492,236,1010,242
1657078926532,38,914,292
1657078926572,-63,918,356
1657078926612,-21,861,427
1657078926652,75,780,487
1657078926692,123,760,446
1657078926732,133,789,492
1657078926772,189,856,455
1657078926812,269,960,425
1657078926852,337,1024,401
1657078926892,418,1093,357
1657078926932,485,1109,302
1657078926972,428,1071,255
1657078927012,349,1008,237
1657078927052,270,998,209
1657078927092,187,1028,223
1657078927132,111,1111,290
1657078927172,181,1166,331
1657078927212,199,1192,382
1657078927252,187,1098,399
1657078927292,204,990,373
1657078927332,204,883,428
1657078927372,184,844,417
1657078927412,125,903,432
1657078927452,120,930,403
1657078927492,224,882,486
1657078927532,261,864,482
1657078927572,261,797,491
1657078927612,237,808,463
1657078927652,230,859,360
1657078927692,260,895,299
1657078927732,280,923,251
1657078927772,296,920,236
1657078927812,306,897,266
1657078927852,271,906,254
1657078927892,268,954,235
1657078927932,233,998,163
1657078927972,144,1134,155
1657078928012,85,1236,216
1657078928052,215,1168,344
1657078928092,251,1047,375
1657078928132,257,935,318
1657078928172,94,908,289
1657078928212,64,916,327
1657078928252,157,901,312
1657078928292,179,855,347
1657078928332,173,871,313
1657078928372,177,894,314
1657078928412,181,909,307
1657078928452,214,938,300
1657078928492,230,988,273
1657078928532,234,977,246
1657078928572,231,977,206
1657078928612,215,973,187
1657078928652,210,979,191
1657078928692,217,995,222
1657078928732,163,1082,327
1657078928772,234,1196,348
1657078928812,283,1209,304
1657078928852,272,1081,324
1657078928892,238,916,305
1657078928932,176,839,303
1657078928972,185,874,266
1657078929012,179,911,329
1657078929052,189,936,404
1657078929092,252,943,470
1657078929132,298,918,493
1657078929172,305,841,500
1657078929212,227,811,464
1657078929252,219,861,339
1657078929292,218,872,289
1657078929332,230,899,302
1657078929372,253,936,283
1657078929412,287,965,272
1657078929452,288,943,253
1657078929492,273,940,233
1657078929532,230,977,169
1657078929572,132,1071,172
1657078929612,48,1236,253
1657078929652,244,1122,271
1657078929692,311,979,323
1657078929732,156,968,298
1657078929772,51,978,262
1657078929812,78,968,378
1657078929852,157,899,407
1657078929892,176,828,396
1657078929932,135,825,333
1657078929972,168,877,271
1657078930012,214,952,238
1657078930052,253,983,228
1657078930092,303,980,249
1657078930132,262,963,225
1657078930172,242,938,242
1657078930212,238,937,207
1657078930252,248,963,218
1657078930292,239,1054,244
1657078930332,224,1141,347
1657078930372,293,1227,343
1657078930412,329,1171,340
1657078930452,284,1010,352
1657078930492,234,856,358
1657078930532,180,825,376
1657078930572,148,868,360
1657078930612,152,875,407
1657078930652,220,882,455
1657078930692,258,819,455
1657078930732,226,805,484
1657078930772,239,841,364
1657078930812,259,864,349
1657078930852,261,938,308
1657078930892,290,947,261
1657078930932,302,926,307
1657078930972,289,950,264
1657078931012,281,952,248
1657078931052,271,981,247
1657078931092,243,995,193
1657078931132,165,1096,223
1657078931172,162,1135,273
1657078931212,268,1082,342
1657078931252,281,1021,271
1657078931292,183,947,243
1657078931332,78,940,277
1657078931372,35,933,327
1657078931412,125,936,399
1657078931452,202,869,385
1657078931492,209,847,343
1657078931532,176,879,258
1657078931572,196,907,206
1657078931612,232,927,207
1657078931652,254,936,215
1657078931692,285,959,218
1657078931732,293,983,207
1657078931772,288,1001,183
1657078931812,281,1009,186
1657078931852,269,972,217
1657078931892,212,1059,270
1657078931932,186,1130,359
1657078931972,275,1141,370
1657078932012,301,1068,391
1657078932052,296,935,363
1657078932092,228,859,377
1657078932132,176,868,413
1657078932172,187,942,390
1657078932212,239,875,462
1657078932252,246,832,507
1657078932292,227,829,438
1657078932332,212,869,358
1657078932372,213,882,326
1657078932412,230,909,341
1657078932452,244,930,362
1657078932492,294,933,368
1657078932532,287,921,356
1657078932572,273,892,327
1657078932612,279,891,257
1657078932652,295,900,245
1657078932692,310,918,252
1657078932732,261,1035,300
1657078932772,206,1125,391
1657078932812,390,1004,454
1657078932852,405,940,373
1657078932892,267,944,214
1657078932932,131,938,220
1657078932972,171,1002,333
1657078933012,243,1015,347
1657078933052,255,906,373
1657078933092,204,850,301
1657078933132,185,887,242
1657078933172,241,907,207
1657078933212,246,900,205
1657078933252,260,905,214
1657078933292,280,911,194
1657078933332,298,875,261
1657078933372,320,952,279
1657078933412,321,1039,304
1657078933452,307,1119,378
1657078933492,377,1124,409
1657078933532,444,995,414
1657078933572,298,894,415
1657078933612,225,883,374
1657078933652,179,913,346
1657078933692,237,888,362
1657078933732,261,836,405
1657078933772,264,806,414
1657078933812,266,856,340
1657078933852,299,891,325
1657078933892,365,934,309
1657078933932,408,939,339
1657078933972,388,917,389
1657078934012,371,916,346
1657078934052,373,909,265
1657078934092,355,890,232
1657078934132,349,867,219
1657078934172,348,870,207
1657078934212,352,905,199
1657078934252,303,1001,225
1657078934292,256,1102,317
