timestamp,accel_X,accel_Y,accel_Z
1657083915090,-875,-466,-358
1657083915130,-852,-446,-323
1657083915170,-852,-435,-323
1657083915210,-858,-445,-321
1657083915250,-860,-468,-340
1657083915290,-859,-485,-337
1657083915330,-864,-489,-328
1657083915370,-853,-480,-350
1657083915410,-847,-479,-325
1657083915450,-848,-472,-347
1657083915490,-838,-470,-340
1657083915530,-842,-476,-339
1657083915570,-842,-480,-356
1657083915610,-846,-490,-341
1657083915650,-875,-520,-357
1657083915690,-844,-521,-363
1657083915730,-841,-499,-333
1657083915770,-831,-476,-321
1657083915810,-819,-449,-315
1657083915850,-818,-430,-311
1657083915890,-809,-393,-292
1657083915930,-846,-407,-296
1657083915970,-938,-481,-347
1657083916010,-943,-479,-323
1657083916050,-944,-493,-297
1657083916090,-911,-527,-300
1657083916130,-825,-494,-277
1657083916170,-796,-488,-276
1657083916210,-786,-481,-297
1657083916250,-828,-505,-317
1657083916290,-868,-533,-331
1657083916330,-866,-527,-332
1657083916370,-875,-518,-313
1657083916410,-843,-477,-267
1657083916450,-868,-486,-268
1657083916490,-883,-524,-276
1657083916530,-870,-556,-289
1657083916570,-817,-527,-294
1657083916610,-831,-498,-276
1657083916650,-849,-497,-294
1657083916690,-838,-496,-304
1657083916730,-840,-492,-329
1657083916770,-889,-522,-351
1657083916810,-940,-569,-431
1657083916850,-841,-589,-531
1657083916890,-787,-641,-720
1657083916930,-851,-482,-682
1657083916970,-832,-260,-646
1657083917010,-684,-140,-519
1657083917050,-623,-103,-537
1657083917090,-720,-161,-652
1657083917130,-766,-146,-575
1657083917170,-775,-152,-576
1657083917210,-744,-156,-684
1657083917250,-788,-126,-640
1657083917290,-741,-119,-695
1657083917330,-720,-139,-728
1657083917370,-729,-136,-731
1657083917410,-719,-165,-750
1657083917450,-704,-157,-757
1657083917490,-722,-167,-734
1657083917530,-713,-181,-731
1657083917570,-703,-157,-694
1657083917610,-727,-205,-719
1657083917650,-721,-174,-667
1657083917690,-741,-221,-638
1657083917730,-788,-254,-692
1657083917770,-787,-248,-655
1657083917810,-778,-247,-610
1657083917850,-768,-263,-636
1657083917890,-773,-280,-637
1657083917930,-779,-299,-688
1657083917970,-787,-306,-645
1657083918010,-782,-299,-656
1657083918050,-750,-304,-672
1657083918090,-877,-299,-674
1657083918130,-1173,-172,-428
1657083918170,-1452,36,145
1657083918210,-1344,108,402
1657083918250,-665,435,538
1657083918290,-442,494,442
1657083918330,-265,580,729
1657083918370,-200,619,598
1657083918410,-182,704,641
1657083918450,-165,727,567
1657083918490,-219,755,399
1657083918530,-233,745,453
1657083918570,-194,815,428
1657083918610,-407,891,458
1657083918650,-137,1006,361
1657083918690,-211,903,333
1657083918730,-190,899,431
1657083918770,-56,872,345
1657083918810,-252,864,320
1657083918850,-220,882,361
1657083918890,-231,865,395
1657083918930,-208,808,358
1657083918970,-308,728,458
1657083919010,-307,706,515
1657083919050,-584,752,624
1657083919090,-535,609,658
1657083919130,-995,218,50
1657083919170,-808,207,-313
1657083919210,-846,58,116
1657083919250,-1027,2,-219
1657083919290,-1250,-76,-181
1657083919330,-1635,-1,-50
1657083919370,-1275,-29,-47
1657083919410,-1340,-59,-259
1657083919450,-749,105,-62
1657083919490,-910,-92,-202
1657083919530,-1044,-179,-320
1657083919570,-1137,-134,-291
1657083919610,-1015,-109,-459
1657083919650,-1007,-66,-140
1657083919690,-1039,-103,295
1657083919730,-970,0,-160
1657083919770,-987,143,-230
1657083919810,-916,136,-393
1657083919850,-998,41,-293
1657083919890,-1128,-146,-281
1657083919930,-988,0,-272
1657083919970,-854,-4,-275
1657083920010,-927,62,-275
1657083920050,-1001,103,-298
1657083920090,-1006,1340,-1074
1657083920130,-532,434,-447
1657083920170,-1610,-308,-4
1657083920210,-1330,-713,155
1657083920250,-1309,-690,-81
1657083920290,-655,140,-525
1657083920330,-873,344,-592
1657083920370,-649,410,-527
1657083920410,-999,404,-597
1657083920450,-871,435,-581
1657083920490,-797,339,-571
1657083920530,-99,-1202,-665
1657083920570,-742,460,-780
1657083920610,-974,729,-312
1657083920650,-742,766,-565
1657083920690,-441,703,-371
1657083920730,-652,817,-497
1657083920770,-394,595,-590
1657083920810,-366,509,-548
1657083920850,-188,431,-769
1657083920890,-314,-11,-853
1657083920930,-489,4,-879
1657083920970,-281,82,-946
1657083921010,-388,441,-1072
1657083921050,-462,-74,-842
1657083921090,-482,-1064,-906
1657083921130,-161,-110,-903
1657083921170,-932,-802,-1170
1657083921210,-744,-155,-542
1657083921250,-597,-92,-853
1657083921290,-447,-538,-903
1657083921330,-474,-215,-665
1657083921370,-494,-13,-762
1657083921410,-658,-128,-725
1657083921450,-690,-187,-788
1657083921490,-533,-344,-858
1657083921530,-682,-63,-776
1657083921570,-535,-248,-837
1657083921610,-442,-384,-851
1657083921650,-772,-218,-847
1657083921690,-480,-335,-777
1657083921730,-474,-430,-1040
1657083921770,-705,-202,-785
1657083921810,-533,-325,-783
1657083921850,-584,-288,-871
1657083921890,1045,1358,-1536
1657083921930,-487,-161,-732
1657083921970,-462,-124,-423
1657083922010,-674,4,-210
1657083922050,-851,0,-320
1657083922090,-892,-52,-318
1657083922130,-1015,34,-376
1657083922170,-1111,70,-308
1657083922210,-1141,146,-441
1657083922250,-1055,165,-563
1657083922290,-941,205,-522
1657083922330,-822,202,-525
1657083922370,-830,304,-521
1657083922410,-905,450,-649
1657083922450,-785,433,-589
1657083922490,-642,577,-555
1657083922530,-542,545,-457
1657083922570,-469,497,-376
1657083922610,-663,580,-429
1657083922650,-550,490,-301
1657083922690,-397,535,-256
1657083922730,-569,794,-308
1657083922770,-677,689,-261
1657083922810,-661,672,-160
1657083922850,-596,743,-159
1657083922890,-820,792,-96
1657083922930,-1082,1177,-43
1657083922970,-1456,1124,49
1657083923010,-1695,696,289
1657083923050,-1491,605,224
1657083923090,-1176,534,220
1657083923130,-933,521,165
1657083923170,-924,626,139
1657083923210,-949,489,148
1657083923250,-1003,493,124
1657083923290,-1005,368,67
1657083923330,-895,287,19
1657083923370,-772,216,-24
1657083923410,-618,171,-78
1657083923450,-496,136,-117
1657083923490,-354,133,-102
1657083923530,-424,271,-103
1657083923570,-243,332,-26
1657083923610,-56,492,84
1657083923650,70,848,253
1657083923690,-2,1341,524
1657083923730,-373,1689,790
1657083923770,-732,1796,1095
1657083923810,-1176,1556,1032
1657083923850,-1130,1240,783
1657083923890,-835,1141,648
1657083923930,-655,1017,544
1657083923970,-454,839,394
1657083924010,-330,786,368
1657083924050,-324,784,314
1657083924090,-264,814,369
1657083924130,-318,897,397
1657083924170,-293,937,431
1657083924210,-218,972,442
1657083924250,-185,961,457
1657083924290,-73,931,478
1657083924330,-43,915,478
1657083924370,-35,892,503
1657083924410,-101,861,512
1657083924450,-124,850,524
1657083924490,-214,904,532
1657083924530,-347,1052,491
1657083924570,-449,1020,407
1657083924610,-553,1093,321
1657083924650,-804,1171,276
1657083924690,-930,1362,239
1657083924730,-1148,1300,397
1657083924770,-1380,1463,393
1657083924810,-1174,935,495
1657083924850,-1322,782,537
1657083924890,-966,584,617
1657083924930,-619,278,208
1657083924970,-317,351,206
1657083925010,-339,257,36
1657083925050,-413,35,182
1657083925090,-557,-158,250
1657083925130,-811,-204,343
1657083925170,-776,-360,611
1657083925210,-636,-392,446
1657083925250,-465,-664,147
1657083925290,-690,-657,721
1657083925330,-489,-777,415
1657083925370,-324,-890,-9
1657083925410,-515,-859,303
1657083925450,-380,-851,223
1657083925490,-536,-920,253
1657083925530,-597,-999,274
1657083925570,-547,-930,109
1657083925610,-512,-963,153
1657083925650,-443,-992,72
1657083925690,-467,-873,152
1657083925730,-455,-751,46
1657083925770,-468,-976,185
1657083925810,-573,-729,154
1657083925850,-526,-740,59
1657083925890,-735,-607,48
1657083925930,-1403,-544,113
1657083925970,-669,-542,-30
1657083926010,-822,-587,58
1657083926050,-717,-416,-28
1657083926090,-872,-660,-70
1657083926130,-961,-870,185
1657083926170,-824,-734,247
1657083926210,-725,-640,79
1657083926250,-709,-686,199
1657083926290,-632,-659,384
1657083926330,-837,-877,-11
1657083926370,-278,-727,320
1657083926410,-306,-633,26
1657083926450,-264,-811,257
1657083926490,-283,-770,187
1657083926530,-229,-849,261
1657083926570,-174,-872,350
1657083926610,-140,-980,417
1657083926650,-184,-1025,442
1657083926690,-231,-1099,370
1657083926730,-170,-1154,379
1657083926770,-80,-1033,483
1657083926810,-141,-885,439
1657083926850,-193,-815,327
1657083926890,-198,-800,311
1657083926930,-191,-722,368
1657083926970,120,-379,113
1657083927010,-538,-428,176
1657083927050,-787,-261,259
1657083927090,-775,-130,190
1657083927130,-1084,65,293
1657083927170,-1029,460,157
1657083927210,-1273,880,94
1657083927250,-988,813,-461
1657083927290,-675,386,-400
1657083927330,-794,318,-1
1657083927370,-1206,734,-146
1657083927410,-1407,692,-651
1657083927450,-1023,699,-1089
1657083927490,-479,400,-866
1657083927530,-532,918,-1175
1657083927570,-136,732,-1063
1657083927610,-94,464,-874
1657083927650,139,389,-756
1657083927690,-528,711,-403
1657083927730,-156,806,-420
1657083927770,-802,1216,-867
1657083927810,634,478,-1062
1657083927850,63,913,-511
1657083927890,-163,848,-418
1657083927930,-258,907,-456
1657083927970,-165,945,-491
1657083928010,-56,838,-452
1657083928050,-215,913,-458
1657083928090,-198,965,-392
1657083928130,-155,912,-416
1657083928170,-124,882,-520
1657083928210,-155,917,-387
1657083928250,-206,921,-407
1657083928290,-71,895,-482
1657083928330,-194,953,-525
1657083928370,-179,930,-414
1657083928410,-142,917,-429
1657083928450,-142,913,-485
1657083928490,-139,923,-434
1657083928530,-85,871,-311
1657083928570,-204,1028,-648
1657083928610,-23,929,-457
1657083928650,-146,929,-375
1657083928690,-241,944,-489
1657083928730,-81,907,-459
1657083928770,-178,928,-483
1657083928810,-151,936,-355
1657083928850,-203,968,-419
1657083928890,-144,908,-451
1657083928930,-169,886,-466
1657083928970,-213,906,-409
1657083929010,-185,927,-393
1657083929050,-214,938,-426
1657083929090,-177,962,-360
1657083929130,-209,910,-401
1657083929170,-185,955,-380
1657083929210,-174,867,-367
1657083929250,-229,932,-418
1657083929290,-204,947,-370
1657083929330,-171,925,-342
1657083929370,-248,929,-379
1657083929410,-252,900,-327
1657083929450,-238,944,-349
1657083929490,-140,927,-376
1657083929530,-233,941,-346
1657083929570,-171,952,-309
1657083929610,-202,971,-355
1657083929650,-210,954,-335
1657083929690,-194,945,-319
1657083929730,-205,976,-364
1657083929770,-192,944,-336
1657083929810,-168,956,-324
1657083929850,-310,1036,-401
1657083929890,-133,827,-382
1657083929930,-118,946,-311
1657083929970,-356,1029,-349
1657083930010,-105,889,-270
1657083930050,-215,948,-400
1657083930090,-187,937,-304
1657083930130,-201,970,-328
1657083930170,-207,962,-373
1657083930210,-182,941,-360
1657083930250,-253,963,-367
1657083930290,-201,923,-337
1657083930330,-229,963,-371
1657083930370,-210,935,-347
1657083930410,-233,954,-363
1657083930450,-216,958,-374
1657083930490,-290,971,-383
1657083930530,-212,920,-280
1657083930570,-188,939,-435
1657083930610,-155,943,-428
1657083930650,-167,903,-275
1657083930690,-292,973,-334
1657083930730,-169,949,-369
1657083930770,-163,904,-406
1657083930810,-237,952,-323
1657083930850,-219,956,-311
1657083930890,-121,925,-428
1657083930930,-192,959,-404
1657083930970,-230,947,-308
1657083931010,-179,965,-375
1657083931050,-146,938,-432
1657083931090,-198,944,-338
1657083931130,-242,946,-299
1657083931170,-160,992,-546
1657083931210,-155,971,-367
1657083931250,-235,961,-304
1657083931290,-152,947,-403
1657083931330,-205,959,-441
1657083931370,-206,940,-321
1657083931410,-252,1030,-267
1657083931450,-169,948,-390
1657083931490,-155,985,-342
1657083931530,-190,1021,-452
1657083931570,-171,945,-451
1657083931610,-208,913,-432
1657083931650,-180,1002,-443
1657083931690,-217,895,-407
1657083931730,-220,909,-440
1657083931770,-123,890,-453
1657083931810,-151,849,-423
1657083931850,-273,933,-486
1657083931890,-163,937,-497
1657083931930,-142,819,-465
1657083931970,-234,913,-528
1657083932010,-159,902,-453
1657083932050,-203,866,-517
1657083932090,-72,896,-498
1657083932130,-168,890,-499
1657083932170,-147,889,-532
1657083932210,-138,892,-511
1657083932250,-143,899,-463
1657083932290,-176,938,-448
1657083932330,-145,909,-473
1657083932370,-114,900,-456
1657083932410,-31,856,-394
1657083932450,-174,979,-664
1657083932490,-73,902,-396
1657083932530,-111,865,-389
1657083932570,-263,996,-487
1657083932610,-169,905,-406
1657083932650,-234,912,-465
1657083932690,-163,889,-422
1657083932730,-182,907,-491
1657083932770,-155,863,-458
1657083932810,-203,916,-434
1657083932850,-187,905,-434
1657083932890,-213,933,-407
1657083932930,-206,912,-449
1657083932970,-163,892,-444
1657083933010,-163,901,-498
1657083933050,-295,956,-501
1657083933090,-157,846,-362
1657083933130,-182,939,-515
1657083933170,-194,903,-520
1657083933210,-147,768,-417
1657083933250,-227,884,-464
1657083933290,-141,904,-455
1657083933330,-67,879,-574
1657083933370,-121,867,-560
1657083933410,-240,902,-501
1657083933450,-60,774,-626
1657083933490,-153,769,-582
1657083933530,-209,983,-909
1657083933570,-90,590,-671
1657083933610,-310,758,-787
1657083933650,-386,737,-1051
1657083933690,-692,155,-816
1657083933730,-1764,653,-1388
1657083933770,-1231,211,-973
1657083933810,-955,203,-587
1657083933850,-728,435,-279
1657083933890,-924,684,-308
1657083933930,-865,390,310
1657083933970,-1082,400,682
1657083934010,-729,201,177
1657083934050,-639,-69,340
1657083934090,-598,-234,198
1657083934130,-646,-480,38
1657083934170,-485,-651,289
1657083934210,-569,-679,309
1657083934250,-575,-724,307
1657083934290,-525,-790,243
1657083934330,-558,-844,161
1657083934370,-564,-790,408
1657083934410,-494,-538,282
1657083934450,-562,51,-267
1657083934490,-753,67,96
1657083934530,-1136,774,286
1657083934570,-1211,842,-137
1657083934610,-824,635,-451
1657083934650,-687,501,-627
1657083934690,-935,473,-408
1657083934730,-1284,424,-52
1657083934770,-980,157,22
1657083934810,-860,419,-149
1657083934850,-778,315,-95
1657083934890,-1284,924,-221
1657083934930,-1128,938,-516
1657083934970,-1230,1081,-695
1657083935010,-1187,1037,-953
1657083935050,-814,1111,-979
1657083935090,-377,764,-976
1657083935130,-232,604,-597
1657083935170,-624,554,-314
1657083935210,-769,278,-107
1657083935250,-743,267,-133
1657083935290,-817,414,-185
1657083935330,-872,422,-163
1657083935370,-835,560,-53
1657083935410,-627,562,33
1657083935450,-424,674,64
1657083935490,-5,735,33
1657083935530,266,817,-74
1657083935570,159,1170,36
1657083935610,48,1267,172
1657083935650,-40,1539,336
1657083935690,-183,1516,525
1657083935730,-358,1379,785
1657083935770,-671,1295,814
1657083935810,-625,1093,719
1657083935850,-675,943,639
1657083935890,-734,939,519
1657083935930,-695,844,454
1657083935970,-682,892,426
1657083936010,-557,917,478
1657083936050,-538,1220,589
1657083936090,-693,1460,636
1657083936130,-671,1359,894
1657083936170,-598,1371,1222
1657083936210,-601,1471,1172
1657083936250,-576,1410,1158
1657083936290,-567,1404,981
1657083936330,-328,1122,660
1657083936370,-110,774,429
1657083936410,280,358,245
1657083936450,443,198,43
1657083936490,489,104,-38
1657083936530,463,169,73
1657083936570,231,720,253
1657083936610,334,879,514
1657083936650,107,1414,1039
1657083936690,-250,2044,1429
1657083936730,-381,2023,1495
1657083936770,-485,1816,1535
1657083936810,-1010,1599,1121
1657083936850,-885,1202,816
1657083936890,-751,979,702
1657083936930,-638,929,511
1657083936970,-469,846,353
1657083937010,-347,833,378
1657083937050,-347,975,431
1657083937090,-253,1053,565
1657083937130,-259,1148,640
1657083937170,-128,1243,707
1657083937210,-313,1349,618
1657083937250,-411,1252,736
1657083937290,-537,1387,1054
1657083937330,-427,1376,1054
1657083937370,-411,1182,906
1657083937410,-440,1017,723
1657083937450,-287,673,549
1657083937490,-142,496,317
1657083937530,71,231,111
1657083937570,84,146,7
1657083937610,16,248,-47
1657083937650,-42,381,-25
1657083937690,-8,550,125
1657083937730,65,823,305
1657083937770,-117,1415,489
1657083937810,-193,1507,802
1657083937850,-554,1784,1053
1657083937890,-642,1404,1070
1657083937930,-698,1320,888
1657083937970,-745,1115,622
1657083938010,-678,1026,445
1657083938050,-539,894,376
1657083938090,-472,824,373
1657083938130,-466,764,366
1657083938170,-502,835,371
1657083938210,-531,1008,364
1657083938250,-492,1140,406
1657083938290,-412,1279,474
1657083938330,-652,1384,540
1657083938370,-763,1113,887
1657083938410,-713,1211,953
1657083938450,-572,1264,702
1657083938490,-776,1183,561
1657083938530,-645,968,429
1657083938570,-196,659,169
1657083938610,53,444,5
1657083938650,199,236,-62
1657083938690,187,136,-42
1657083938730,57,398,-49
1657083938770,-112,603,105
1657083938810,-260,919,234
1657083938850,-419,1173,371
1657083938890,-855,1458,535
1657083938930,-731,1099,550
1657083938970,-583,1145,481
1657083939010,-542,1134,453
1657083939050,-671,1185,492
1657083939090,-797,1142,394
1657083939130,-691,968,343
1657083939170,-629,963,346
1657083939210,-576,988,341
1657083939250,-522,969,380
1657083939290,-538,1012,410
1657083939330,-466,1075,482
1657083939370,-323,1124,531
1657083939410,-265,1292,309
1657083939450,-153,1164,107
1657083939490,-274,903,562
1657083939530,-334,912,686
1657083939570,-303,808,482
1657083939610,-229,641,424
1657083939650,-116,685,260
1657083939690,3,654,172
1657083939730,-114,802,164
1657083939770,-160,1026,103
1657083939810,-1043,1210,642
1657083939850,-906,1092,390
1657083939890,-525,927,218
1657083939930,-301,919,142
1657083939970,-29,959,83
1657083940010,-275,945,256
1657083940050,-397,939,189
1657083940090,-654,861,181
1657083940130,-525,832,193
1657083940170,-580,844,317
1657083940210,-484,931,406
1657083940250,-260,957,262
1657083940290,-306,851,284
1657083940330,-448,846,317
1657083940370,-517,910,332
1657083940410,-611,951,257
1657083940450,-635,1038,211
1657083940490,-323,948,208
1657083940530,-213,815,260
1657083940570,-264,882,280
1657083940610,-612,855,310
1657083940650,-511,870,409
1657083940690,-507,984,383
1657083940730,-483,891,330
1657083940770,-578,819,350
1657083940810,-534,762,326
1657083940850,-690,782,332
1657083940890,-563,851,279
1657083940930,-597,828,316
1657083940970,-762,975,285
1657083941010,-1061,959,444
1657083941050,-1267,1694,177
1657083941090,-960,1501,-601
1657083941130,-279,1194,-413
1657083941170,610,524,-6
1657083941210,1171,54,172
1657083941250,-2,580,386
1657083941290,-328,561,-625
1657083941330,-1002,541,-557
1657083941370,-2048,536,-2048
1657083941410,279,71,-1111
1657083941450,-60,966,-996
1657083941490,-352,773,-875
1657083941530,-228,527,-929
1657083941570,-39,609,-718
1657083941610,-216,506,-1021
1657083941650,-96,619,-743
1657083941690,-213,514,-906
1657083941730,-187,673,-829
1657083941770,-117,412,-974
1657083941810,35,527,-758
1657083941850,-457,728,-1267
1657083941890,-55,585,-801
1657083941930,-129,604,-818
1657083941970,-70,591,-784
1657083942010,-141,566,-892
1657083942050,-186,614,-857
1657083942090,-109,629,-780
1657083942130,-204,566,-936
1657083942170,-146,591,-814
1657083942210,-184,560,-896
1657083942250,-186,590,-859
1657083942290,-134,589,-821
1657083942330,-242,604,-921
1657083942370,-205,622,-895
1657083942410,-145,554,-858
1657083942450,-33,479,-826
1657083942490,-111,485,-955
1657083942530,-166,625,-805
1657083942570,-219,634,-807
1657083942610,-130,502,-940
1657083942650,-108,567,-818
1657083942690,-200,610,-806
1657083942730,-117,549,-837
1657083942770,-117,552,-884
1657083942810,-172,577,-879
1657083942850,-159,631,-793
1657083942890,-168,539,-908
1657083942930,-112,607,-833
1657083942970,-151,600,-869
1657083943010,4,556,-667
1657083943050,-240,548,-1070
1657083943090,-138,635,-842
1657083943130,-155,653,-701
1657083943170,-116,472,-964
1657083943210,-143,599,-808
1657083943250,-220,541,-842
1657083943290,-150,583,-778
1657083943330,259,511,-130
1657083943370,-205,641,-832
1657083943410,-463,891,-352
1657083943450,-517,772,-1277
1657083943490,-180,834,-547
1657083943530,-185,854,-570
1657083943570,-199,787,-451
1657083943610,-301,936,-616
1657083943650,-298,858,-584
1657083943690,-184,772,-551
1657083943730,-191,751,-525
1657083943770,-188,1002,-606
1657083943810,-112,908,-471
1657083943850,-286,896,-477
1657083943890,-144,789,-608
1657083943930,-253,1028,-603
1657083943970,6,549,-684
1657083944010,-152,841,-527
1657083944050,-210,956,-711
1657083944090,-40,805,-601
1657083944130,-190,947,-568
1657083944170,-41,870,-600
1657083944210,-122,837,-668
1657083944250,-82,635,-521
1657083944290,-138,866,-707
1657083944330,27,784,-526
1657083944370,-192,845,-655
1657083944410,-120,793,-574
1657083944450,-182,788,-662
1657083944490,-133,822,-606
1657083944530,-168,806,-606
1657083944570,-202,799,-608
1657083944610,-157,779,-605
1657083944650,-167,789,-641
1657083944690,-182,771,-633
1657083944730,-166,766,-647
1657083944770,-37,723,-535
1657083944810,-262,856,-711
1657083944850,-199,837,-636
1657083944890,-57,749,-703
1657083944930,-149,738,-716
1657083944970,-170,842,-537
1657083945010,-130,812,-655
1657083945050,-100,755,-686
1657083945090,-152,771,-617
1657083945130,-137,797,-639
1657083945170,-115,770,-675
1657083945210,-132,791,-668
1657083945250,-133,785,-694
1657083945290,-88,802,-673
1657083945330,-287,918,-771
1657083945370,-126,866,-603
1657083945410,-71,794,-621
1657083945450,-244,827,-711
1657083945490,-97,755,-559
1657083945530,-189,778,-750
1657083945570,-118,766,-626
1657083945610,-202,854,-574
1657083945650,-177,727,-641
1657083945690,-106,764,-662
1657083945730,-171,745,-694
1657083945770,-178,780,-631
1657083945810,-108,768,-668
1657083945850,-361,837,-722
1657083945890,-154,836,-587
1657083945930,-49,709,-726
1657083945970,-167,777,-732
1657083946010,-200,792,-566
1657083946050,-123,771,-630
1657083946090,-153,749,-672
1657083946130,-150,781,-603
1657083946170,-176,817,-705
1657083946210,-129,746,-658
1657083946250,-147,767,-697
1657083946290,-173,810,-671
1657083946330,55,733,-418
1657083946370,-220,811,-861
1657083946410,-87,842,-526
1657083946450,-242,831,-630
1657083946490,-189,756,-651
1657083946530,-124,774,-617
1657083946570,-217,774,-676
1657083946610,-115,777,-587
1657083946650,-198,808,-681
1657083946690,-150,786,-644
1657083946730,-120,734,-713
1657083946770,-232,811,-646
1657083946810,-112,748,-621
1657083946850,-284,821,-818
1657083946890,-272,778,-710
1657083946930,-125,775,-695
1657083946970,-148,667,-767
1657083947010,-158,817,-493
1657083947050,-195,803,-667
1657083947090,-90,741,-759
1657083947130,-58,754,-622
1657083947170,-205,813,-638
1657083947210,-159,782,-689
1657083947250,-109,750,-631
1657083947290,-169,776,-728
1657083947330,-210,824,-597
1657083947370,14,739,-415
1657083947410,-160,716,-851
1657083947450,-79,822,-532
1657083947490,-240,804,-651
1657083947530,-103,755,-675
1657083947570,-151,772,-718
1657083947610,-183,786,-655
1657083947650,-155,742,-673
1657083947690,-200,760,-642
1657083947730,-116,759,-613
1657083947770,-181,742,-646
1657083947810,-178,764,-739
1657083947850,-216,783,-675
1657083947890,-66,756,-491
1657083947930,-220,706,-747
1657083947970,-120,701,-654
1657083948010,-111,724,-652
1657083948050,-161,762,-661
1657083948090,-226,843,-593
1657083948130,-99,714,-661
1657083948170,-69,685,-730
1657083948210,-156,754,-658
1657083948250,-208,808,-662
1657083948290,-167,815,-663
1657083948330,-120,777,-697
1657083948370,-156,773,-683
1657083948410,-177,809,-633
1657083948450,-252,765,-897
1657083948490,-78,804,-552
1657083948530,-223,796,-718
1657083948570,-203,757,-658
1657083948610,-60,742,-617
1657083948650,-202,756,-757
1657083948690,-112,793,-630
1657083948730,-235,816,-707
1657083948770,-96,790,-667
1657083948810,-133,759,-674
1657083948850,-110,688,-694
1657083948890,-126,764,-688
1657083948930,-144,753,-685
1657083948970,-51,777,-519
1657083949010,-360,777,-827
1657083949050,-30,740,-699
1657083949090,-124,769,-718
1657083949130,-205,810,-649
1657083949170,-176,806,-614
1657083949210,-83,733,-700
1657083949250,-104,744,-667
1657083949290,-141,744,-685
1657083949330,-109,738,-634
1657083949370,-103,756,-734
1657083949410,-94,721,-671
1657083949450,-194,826,-674
1657083949490,-170,803,-621
1657083949530,66,645,-446
1657083949570,-139,583,-929
1657083949610,7,763,-465
1657083949650,-253,789,-664
1657083949690,-88,762,-643
1657083949730,-128,788,-636
1657083949770,-164,777,-754
1657083949810,-125,787,-610
1657083949850,-132,738,-765
1657083949890,-136,789,-586
1657083949930,-180,771,-670
1657083949970,-99,756,-655
1657083950010,-215,779,-702
1657083950050,-135,671,-695
1657083950090,-205,689,-719
1657083950130,-224,740,-655
1657083950170,-60,702,-673
1657083950210,-263,759,-776
1657083950250,-94,754,-580
1657083950290,-182,786,-654
1657083950330,-71,722,-720
1657083950370,-100,775,-671
1657083950410,-177,794,-655
1657083950450,-125,781,-684
1657083950490,-105,764,-694
1657083950530,-224,830,-675
1657083950570,-145,832,-603
1657083950610,-84,776,-624
1657083950650,-106,763,-787
1657083950690,-111,846,-607
1657083950730,-241,799,-738
1657083950770,-30,687,-604
1657083950810,-186,807,-679
1657083950850,-138,802,-631
1657083950890,-107,782,-695
1657083950930,-198,791,-648
1657083950970,-140,749,-634
1657083951010,-150,749,-717
1657083951050,-166,759,-690
1657083951090,-67,724,-581
1657083951130,-386,834,-885
1657083951170,-60,753,-602
1657083951210,-147,776,-773
1657083951250,-232,794,-772
1657083951290,-128,789,-519
1657083951330,-160,771,-684
1657083951370,-90,748,-645
1657083951410,-125,768,-644
1657083951450,-168,794,-679
1657083951490,-84,731,-692
1657083951530,-104,788,-680
1657083951570,-242,849,-655
1657083951610,72,734,-396
1657083951650,-210,730,-873
1657083951690,31,785,-526
1657083951730,-244,816,-685
1657083951770,-143,756,-702
1657083951810,-124,784,-546
1657083951850,-208,701,-709
1657083951890,-113,749,-600
1657083951930,-168,805,-654
1657083951970,-126,786,-675
1657083952010,-155,819,-641
1657083952050,-160,772,-734
1657083952090,-201,745,-639
1657083952130,-141,748,-712
1657083952170,-220,725,-705
1657083952210,-56,694,-669
1657083952250,-134,697,-721
1657083952290,-133,779,-582
1657083952330,-198,798,-630
1657083952370,-100,754,-688
1657083952410,-125,810,-674
1657083952450,-219,829,-621
1657083952490,-152,811,-690
1657083952530,-38,746,-741
1657083952570,-112,769,-674
1657083952610,-212,844,-563
1657083952650,53,733,-488
1657083952690,-153,702,-879
1657083952730,-21,799,-576
1657083952770,-203,777,-695
1657083952810,-174,784,-663
1657083952850,-117,778,-646
1657083952890,-182,746,-694
1657083952930,-124,768,-639
1657083952970,-198,809,-720
1657083953010,-113,771,-672
1657083953050,-176,780,-641
1657083953090,-211,750,-718
1657083953130,-99,681,-680
1657083953170,-82,720,-642
1657083953210,-339,896,-673
1657083953250,-193,863,-704
1657083953290,-112,705,-794
1657083953330,-178,785,-634
1657083953370,-211,811,-564
1657083953410,-127,775,-738
1657083953450,-76,785,-684
1657083953490,-182,788,-670
1657083953530,-185,835,-649
1657083953570,-121,723,-660
1657083953610,-107,734,-673
1657083953650,-162,764,-651
1657083953690,53,706,-449
1657083953730,-136,781,-879
1657083953770,-157,883,-606
1657083953810,-224,860,-668
1657083953850,-142,730,-696
1657083953890,-105,776,-614
1657083953930,-190,768,-689
1657083953970,-96,726,-598
1657083954010,-180,730,-706
1657083954050,-119,724,-616
1657083954090,-158,741,-698
1657083954130,-166,753,-679
1657083954170,-142,746,-697
1657083954210,-370,819,-811
1657083954250,-95,717,-618
1657083954290,-74,716,-735
1657083954330,-247,791,-720
1657083954370,-104,762,-574
1657083954410,-122,711,-717
1657083954450,-64,724,-678
1657083954490,-149,781,-637
1657083954530,-145,763,-659
1657083954570,-175,819,-695
1657083954610,-213,780,-676
1657083954650,-135,749,-566
1657083954690,53,684,-498
1657083954730,-117,598,-741
1657083954770,-128,802,-514
1657083954810,-293,791,-653
1657083954850,-48,722,-598
1657083954890,-185,768,-679
1657083954930,-229,814,-664
1657083954970,-104,777,-670
1657083955010,-183,783,-704
1657083955050,-115,744,-649
1657083955090,-170,763,-722
1657083955130,-198,773,-624
1657083955170,-75,697,-666
1657083955210,-286,814,-624
1657083955250,-272,773,-783
1657083955290,-54,726,-630
1657083955330,-189,720,-790
1657083955370,-215,833,-564
1657083955410,-93,749,-633
1657083955450,-54,696,-829
1657083955490,-102,765,-630
1657083955530,-229,821,-699
1657083955570,-156,801,-601
1657083955610,-116,749,-742
1657083955650,-185,803,-678
1657083955690,-148,827,-617
1657083955730,-309,854,-873
1657083955770,-116,816,-528
1657083955810,-150,788,-736
1657083955850,-212,796,-731
1657083955890,-102,789,-591
1657083955930,-187,776,-689
1657083955970,-67,735,-698
1657083956010,-152,764,-700
1657083956050,-169,829,-579
1657083956090,-212,796,-705
1657083956130,-117,753,-697
1657083956170,-178,725,-713
1657083956210,-28,748,-539
1657083956250,-404,859,-877
1657083956290,-119,806,-707
1657083956330,-160,765,-742
1657083956370,-84,671,-736
1657083956410,-38,618,-565
1657083956450,78,742,-476
1657083956490,-351,1433,-1084
1657083956530,-44,766,-594
1657083956570,-541,856,-270
1657083956610,-216,895,-419
1657083956650,-216,823,-468
1657083956690,-352,1021,-333
1657083956730,-121,1322,-316
1657083956770,130,530,-157
1657083956810,-268,967,-542
1657083956850,-84,949,-288
1657083956890,-204,949,-311
1657083956930,-178,943,-412
1657083956970,-163,882,-356
1657083957010,-205,944,-359
1657083957050,-173,959,-443
1657083957090,-156,940,-323
1657083957130,-210,999,-420
1657083957170,-161,953,-318
1657083957210,-194,970,-463
1657083957250,-181,912,-244
1657083957290,-270,984,-437
1657083957330,5,858,-177
1657083957370,-355,955,-572
1657083957410,-127,875,-353
1657083957450,-188,901,-468
1657083957490,-187,929,-384
1657083957530,-280,990,-286
1657083957570,-394,1016,-473
1657083957610,-173,898,-387
1657083957650,-477,866,-580
1657083957690,-225,660,-503
1657083957730,-399,653,-954
1657083957770,-562,579,-628
1657083957810,-353,508,-869
1657083957850,-402,527,-660
1657083957890,-111,477,-963
1657083957930,-863,587,-1256
1657083957970,-275,316,-424
1657083958010,-504,402,-986
1657083958050,-343,441,-965
1657083958090,-49,186,-628
1657083958130,-510,357,-942
1657083958170,-218,426,-804
1657083958210,-210,409,-1104
1657083958250,-137,466,-965
1657083958290,-356,547,-770
1657083958330,-217,399,-1095
1657083958370,-221,486,-713
1657083958410,-265,580,-950
1657083958450,-267,493,-927
1657083958490,-614,586,-1077
1657083958530,-136,374,-944
1657083958570,-217,417,-930
1657083958610,-199,346,-990
1657083958650,-144,383,-808
1657083958690,-288,423,-951
1657083958730,-123,387,-948
1657083958770,-308,375,-996
1657083958810,-271,412,-826
1657083958850,-174,312,-1024
1657083958890,-226,294,-940
1657083958930,-180,368,-929
1657083958970,-405,462,-956
1657083959010,-230,268,-863
1657083959050,-484,233,-1125
1657083959090,-126,404,-816
1657083959130,-322,283,-976
1657083959170,-214,322,-976
1657083959210,-128,339,-837
1657083959250,-372,280,-1018
1657083959290,-214,380,-807
1657083959330,-272,260,-1055
1657083959370,-247,314,-906
1657083959410,-250,313,-968
1657083959450,-343,221,-965
1657083959490,-328,202,-871
1657083959530,-409,226,-967
1657083959570,-131,331,-649
1657083959610,-711,136,-1129
1657083959650,-239,301,-905
1657083959690,-217,115,-997
1657083959730,-121,299,-1132
1657083959770,-394,410,-848
1657083959810,-248,258,-1003
1657083959850,-154,296,-905
1657083959890,-245,270,-917
1657083959930,-227,473,-873
1657083959970,-299,304,-957
1657083960010,-235,303,-968
1657083960050,-115,316,-1006
1657083960090,-259,415,-834
1657083960130,-787,236,-1176
1657083960170,-56,288,-882
1657083960210,-213,265,-976
1657083960250,-489,368,-1048
1657083960290,-249,356,-852
1657083960330,-138,131,-1097
1657083960370,-203,328,-853
1657083960410,-379,356,-925
1657083960450,-167,279,-978
1657083960490,-287,324,-974
1657083960530,-215,315,-940
1657083960570,-254,175,-993
1657083960610,-255,420,-954
1657083960650,-576,198,-1168
1657083960690,-96,475,-786
1657083960730,-129,168,-1195
1657083960770,-151,366,-926
1657083960810,-442,591,-824
1657083960850,-230,325,-1061
1657083960890,-94,508,-748
1657083960930,-81,112,-868
1657083960970,-308,397,-1003
1657083961010,-402,269,-994
1657083961050,-72,350,-871
1657083961090,-342,261,-1018
1657083961130,-121,395,-881
1657083961170,-17,436,-701
1657083961210,-603,460,-984
1657083961250,-164,346,-940
1657083961290,-317,204,-1068
1657083961330,-225,276,-899
1657083961370,2,210,-913
1657083961410,-194,477,-873
1657083961450,-240,294,-920
1657083961490,-229,432,-949
1657083961530,77,250,-1158
1657083961570,19,310,-649
1657083961610,-982,117,-1385
1657083961650,72,211,-609
1657083961690,-64,92,-1063
1657083961730,-314,187,-975
1657083961770,-194,213,-904
1657083961810,-282,448,-963
1657083961850,-170,78,-905
1657083961890,-60,652,-1314
1657083961930,-183,330,-919
1657083961970,23,376,-845
1657083962010,-3,-88,-847
1657083962050,60,419,-628
1657083962090,-436,422,-1043
1657083962130,-261,131,-1196
1657083962170,-58,412,-762
1657083962210,-188,360,-1041
1657083962250,-121,244,-1006
1657083962290,-110,372,-1030
1657083962330,-349,368,-1009
1657083962370,10,330,-763
1657083962410,-376,416,-1056
1657083962450,-248,-141,-1405
1657083962490,-109,543,-592
1657083962530,-82,-75,-1211
1657083962570,-137,438,-757
1657083962610,-207,266,-1059
1657083962650,-162,362,-876
1657083962690,-95,325,-1060
1657083962730,-182,333,-988
1657083962770,-190,406,-912
1657083962810,-7,329,-952
1657083962850,-168,328,-925
1657083962890,-132,252,-972
1657083962930,-313,244,-1023
1657083962970,-168,363,-909
1657083963010,-81,300,-964
1657083963050,-114,175,-1073
1657083963090,-169,446,-943
1657083963130,-160,332,-1036
1657083963170,-181,240,-958
1657083963210,-335,338,-936
1657083963250,-379,204,-1163
1657083963290,-238,547,-462
1657083963330,-288,24,-1257
1657083963370,-67,378,-883
1657083963410,-223,344,-816
1657083963450,-229,335,-1031
1657083963490,-82,404,-882
1657083963530,-309,360,-1022
1657083963570,-33,443,-759
1657083963610,56,265,-973
1657083963650,-185,355,-813
1657083963690,-232,275,-958
1657083963730,-371,333,-1021
1657083963770,-149,471,-832
1657083963810,-316,330,-1057
1657083963850,-137,344,-953
1657083963890,-142,224,-981
1657083963930,-79,330,-1046
1657083963970,-111,344,-926
1657083964010,-501,509,-1171
1657083964050,-167,77,-1002
1657083964090,-293,605,-766
1657083964130,-268,244,-1037
1657083964170,-43,309,-851
1657083964210,-338,506,-910
1657083964250,-141,387,-901
1657083964290,-238,391,-985
1657083964330,-264,488,-964
1657083964370,-219,453,-763
1657083964410,-84,229,-883
1657083964450,-262,377,-860
1657083964490,-275,391,-950
1657083964530,-374,301,-1059
1657083964570,-142,471,-778
1657083964610,-277,384,-976
1657083964650,-189,393,-895
1657083964690,16,250,-1006
1657083964730,-256,270,-1019
1657083964770,-70,336,-908
1657083964810,-449,419,-1089
1657083964850,-301,160,-1104
1657083964890,-180,520,-638
1657083964930,-413,313,-1210
1657083964970,-88,371,-882
1657083965010,-249,415,-820
1657083965050,-471,435,-1055
1657083965090,-505,151,-1149
1657083965130,-1551,587,-1682
1657083965170,-1763,137,-1634
1657083965210,-599,10,-311
1657083965250,-649,462,-177
1657083965290,-1278,1020,-579
1657083965330,-1061,1321,-455
1657083965370,-436,1134,-599
1657083965410,80,852,-280
1657083965450,757,676,-206
1657083965490,1225,972,-280
1657083965530,802,1217,-53
1657083965570,396,1629,483
1657083965610,-718,2047,922
1657083965650,-1705,2047,1497
1657083965690,-2048,2047,707
1657083965730,-1903,1359,117
1657083965770,-2014,1407,-568
1657083965810,-1410,637,-973
1657083965850,-1339,603,-1015
1657083965890,-1066,586,-758
1657083965930,-1082,528,-230
1657083965970,-1460,733,296
1657083966010,-1661,1154,785
1657083966050,-2048,1991,1023
1657083966090,-1377,2038,798
1657083966130,-512,1460,632
1657083966170,157,1088,314
1657083966210,636,567,239
1657083966250,1000,400,161
1657083966290,1060,851,98
1657083966330,999,1112,377
1657083966370,729,1767,838
1657083966410,-1117,2047,1733
1657083966450,-2048,2047,732
1657083966490,-2048,1672,54
1657083966530,-1549,1263,-701
1657083966570,-840,641,-1017
1657083966610,-985,470,-840
1657083966650,-1206,223,-560
1657083966690,-1165,248,-412
1657083966730,-1314,387,1
1657083966770,-1935,1045,453
1657083966810,-2048,2047,461
1657083966850,-1797,2047,565
1657083966890,-688,1600,738
1657083966930,-8,1206,636
1657083966970,452,933,529
1657083967010,1216,531,416
1657083967050,1790,519,197
1657083967090,838,1449,385
1657083967130,586,1790,787
1657083967170,-1414,2047,1597
1657083967210,-2048,2047,806
1657083967250,-2048,1664,260
1657083967290,-2048,1193,-368
1657083967330,-1310,719,-809
1657083967370,-1067,434,-818
1657083967410,-925,372,-642
1657083967450,-857,222,-328
1657083967490,-1094,222,118
1657083967530,-1822,734,557
1657083967570,-2048,2047,380
1657083967610,-1842,2047,239
1657083967650,-930,1867,617
1657083967690,-178,1286,669
1657083967730,333,960,585
1657083967770,1065,536,404
1657083967810,1235,170,339
1657083967850,808,690,362
1657083967890,674,1196,314
1657083967930,463,1860,981
1657083967970,-1212,2047,1593
1657083968010,-2048,2047,1104
1657083968050,-1452,2025,371
1657083968090,-1643,1812,-338
1657083968130,-1591,1268,-668
1657083968170,-1347,956,-1019
1657083968210,-1282,548,-972
1657083968250,-1323,421,-444
1657083968290,-1561,626,163
1657083968330,-1815,1422,750
1657083968370,-1919,2047,752
1657083968410,-1604,2047,1133
1657083968450,-790,2034,879
1657083968490,-105,1300,922
1657083968530,311,901,888
1657083968570,1210,410,654
1657083968610,1370,329,514
1657083968650,1180,695,398
1657083968690,770,1506,397
1657083968730,-849,2047,765
1657083968770,-2048,2047,470
1657083968810,-2048,1531,-127
1657083968850,-1691,744,-489
1657083968890,-1000,605,-929
1657083968930,-756,306,-956
1657083968970,-686,111,-746
1657083969010,-722,58,-434
1657083969050,-1029,148,-114
1657083969090,-1941,473,274
1657083969130,-2048,1887,237
1657083969170,-2048,2047,-82
1657083969210,-894,1830,203
1657083969250,-196,1088,528
1657083969290,200,833,489
1657083969330,682,442,325
1657083969370,1019,246,218
1657083969410,1091,482,251
1657083969450,814,1141,273
1657083969490,-538,2047,460
1657083969530,-2048,2047,275
1657083969570,-2048,1576,-232
1657083969610,-1885,660,-260
1657083969650,-1272,384,-604
1657083969690,-906,317,-891
1657083969730,-735,143,-752
1657083969770,-756,60,-464
1657083969810,-1066,111,-194
1657083969850,-2033,389,26
1657083969890,-2048,1503,214
1657083969930,-2048,2047,14
1657083969970,-1451,1918,170
1657083970010,-168,1034,567
1657083970050,364,458,665
1657083970090,887,427,469
1657083970130,1138,333,242
1657083970170,799,598,341
1657083970210,703,1033,328
1657083970250,150,1956,711
1657083970290,-2048,2047,986
1657083970330,-2048,2047,647
1657083970370,-2048,1005,210
1657083970410,-1828,462,-175
1657083970450,-1219,260,-540
1657083970490,-1011,131,-524
1657083970530,-883,88,-362
1657083970570,-832,138,-258
1657083970610,-1135,119,203
1657083970650,-1816,480,533
1657083970690,-2048,1416,584
1657083970730,-2048,2047,378
1657083970770,-775,1467,233
1657083970810,-111,801,415
1657083970850,276,632,502
1657083970890,539,481,431
1657083970930,830,465,361
1657083970970,872,806,176
1657083971010,415,1348,131
1657083971050,-2048,2047,309
1657083971090,-2048,1751,84
1657083971130,-1789,816,-81
1657083971170,-1485,469,-244
1657083971210,-1473,389,-435
1657083971250,-1356,203,-464
1657083971290,-1147,129,-425
1657083971330,-919,97,-361
1657083971370,-1195,212,-192
1657083971410,-2048,597,242
1657083971450,-2048,1466,214
1657083971490,-1997,1891,194
1657083971530,-976,1333,313
1657083971570,-225,925,384
1657083971610,289,715,317
1657083971650,562,605,196
1657083971690,953,515,149
1657083971730,866,761,167
1657083971770,504,1311,92
1657083971810,-2048,2047,-51
1657083971850,-2048,1595,-166
1657083971890,-1921,827,-223
1657083971930,-1554,405,-278
1657083971970,-1206,68,-343
1657083972010,-1233,35,-424
1657083972050,-1054,-88,-389
1657083972090,-780,-148,-375
1657083972130,-920,-151,-313
1657083972170,-2048,129,257
1657083972210,-2048,966,315
1657083972250,-2048,2024,248
1657083972290,-1754,1207,744
1657083972330,-433,1054,693
1657083972370,334,683,369
1657083972410,329,595,-129
1657083972450,-16,265,-9
1657083972490,-353,-352,621
1657083972530,-583,-758,397
1657083972570,-625,-1238,458
1657083972610,-603,-1247,630
1657083972650,-473,-1139,310
1657083972690,-358,-914,-112
1657083972730,-263,-700,-254
1657083972770,-252,-673,-152
1657083972810,-297,-806,186
1657083972850,-428,-768,175
1657083972890,-213,-837,226
1657083972930,-322,-1244,-78
1657083972970,-331,-1709,96
1657083973010,-445,-1457,-12
1657083973050,-445,-898,-128
1657083973090,-383,-467,-19
1657083973130,-192,-85,-95
1657083973170,9,275,-104
1657083973210,-3,466,301
1657083973250,37,875,486
1657083973290,130,1338,677
1657083973330,-585,2047,615
1657083973370,-2048,2047,1383
1657083973410,-2048,2047,1096
1657083973450,-2048,1300,742
1657083973490,-2034,1013,234
1657083973530,-1535,368,-170
1657083973570,-1470,335,-460
1657083973610,-1211,555,-738
1657083973650,-1008,555,-708
1657083973690,-1340,626,-96
1657083973730,-2048,1175,507
1657083973770,-2048,2047,526
1657083973810,-1639,2047,462
1657083973850,-774,1507,713
1657083973890,-216,1079,911
1657083973930,146,881,530
1657083973970,358,678,165
1657083974010,468,605,-77
1657083974050,326,517,-147
1657083974090,-603,1016,-422
1657083974130,-2048,568,-281
1657083974170,-2048,65,242
1657083974210,-2048,-388,175
1657083974250,-1991,-539,172
1657083974290,-1025,-459,306
1657083974330,-622,-440,514
1657083974370,-278,-234,610
1657083974410,-6,19,214
1657083974450,155,36,152
1657083974490,308,-330,19
1657083974530,486,-1065,-623
1657083974570,-168,-1376,-688
1657083974610,-431,-1235,-689
1657083974650,-657,-1020,-338
1657083974690,-347,-799,-491
1657083974730,-249,-569,-324
1657083974770,-479,-464,-366
1657083974810,-413,-435,515
1657083974850,-538,-647,-145
1657083974890,-394,-1137,-749
1657083974930,-552,-1086,-686
1657083974970,-513,-1207,-537
1657083975010,-348,-1025,-569
1657083975050,-279,-873,-167
1657083975090,-224,-768,-48
1657083975130,-266,-791,-166
1657083975170,-354,-495,120
1657083975210,-344,-652,122
1657083975250,-360,-1135,72
1657083975290,-690,-1336,66
1657083975330,-341,-1516,25
1657083975370,-381,-1418,-10
1657083975410,-413,-987,-82
1657083975450,-276,-616,-265
1657083975490,-229,-1063,6
1657083975530,-72,-836,-132
1657083975570,-565,-725,689
1657083975610,-718,-435,516
1657083975650,-499,-609,-137
1657083975690,-694,-1129,-1800
1657083975730,-711,-993,-456
1657083975770,-750,-1109,-187
1657083975810,-298,-1055,-383
1657083975850,-221,-880,-306
1657083975890,-210,-840,-102
1657083975930,-175,-727,-199
1657083975970,-280,-717,-52
1657083976010,-281,-720,32
1657083976050,-416,-963,9
1657083976090,-524,-1301,-449
1657083976130,-318,-1394,-219
1657083976170,-495,-1080,-86
1657083976210,-555,-904,-31
1657083976250,-161,-898,-442
1657083976290,237,-585,-335
1657083976330,-284,-735,211
1657083976370,-1082,-456,-219
1657083976410,-545,-598,-907
1657083976450,134,-645,-1021
1657083976490,213,-1071,-967
1657083976530,-169,-931,-841
1657083976570,-213,-694,-876
1657083976610,141,-791,-580
1657083976650,297,-742,-432
1657083976690,251,-393,-888
1657083976730,381,-628,-243
1657083976770,331,-324,-39
1657083976810,153,-468,363
1657083976850,78,-852,373
1657083976890,-3,-1182,-149
1657083976930,-985,-1079,210
1657083976970,-964,-1471,625
1657083977010,-1105,-934,1879
1657083977050,-900,-921,471
1657083977090,-996,-813,324
1657083977130,-490,-408,350
1657083977170,-11,118,209
1657083977210,322,528,185
1657083977250,-5,926,356
1657083977290,-975,691,1135
1657083977330,-2048,176,2046
1657083977370,-2048,-1029,2046
1657083977410,-1412,-1653,1684
1657083977450,-970,-1398,1020
1657083977490,-677,-936,256
1657083977530,-501,-835,-127
1657083977570,-132,-336,-259
1657083977610,-106,-526,-214
1657083977650,-1110,-913,39
1657083977690,-2048,-910,932
1657083977730,-2048,-71,1243
1657083977770,-2048,756,795
1657083977810,-585,767,639
1657083977850,513,607,557
1657083977890,1053,269,482
1657083977930,1418,268,449
1657083977970,1298,750,342
1657083978010,820,1567,476
1657083978050,-2048,2047,838
1657083978090,-2048,2047,439
1657083978130,-2048,747,201
1657083978170,-1997,183,-13
1657083978210,-1254,-237,-186
1657083978250,-931,-286,-351
1657083978290,-837,-306,-335
1657083978330,-614,-438,-289
1657083978370,-984,-209,-142
1657083978410,-2048,514,133
1657083978450,-2048,1460,323
1657083978490,-2048,2044,293
1657083978530,-1096,1676,246
1657083978570,-91,1016,430
1657083978610,398,751,615
1657083978650,1038,490,634
1657083978690,1551,357,463
1657083978730,1453,765,329
1657083978770,542,1746,199
1657083978810,-2048,2047,277
1657083978850,-2048,2047,-267
1657083978890,-2048,862,-290
1657083978930,-1564,317,-371
1657083978970,-1223,215,-521
1657083979010,-957,-58,-534
1657083979050,-773,-265,-392
1657083979090,-808,-302,-301
1657083979130,-1502,15,-204
1657083979170,-2048,809,-229
1657083979210,-2048,1616,-177
1657083979250,-2048,2047,-58
1657083979290,-870,1826,-103
1657083979330,62,1232,210
1657083979370,419,738,465
1657083979410,811,566,566
1657083979450,1245,393,501
1657083979490,1383,533,438
1657083979530,33,1687,306
1657083979570,-2048,2047,14
1657083979610,-2048,946,16
1657083979650,-2048,8,16
1657083979690,-1417,-294,-152
1657083979730,-1056,-352,-368
1657083979770,-817,-506,-474
1657083979810,-726,-593,-400
1657083979850,-1234,-561,104
1657083979890,-2048,-973,1248
1657083979930,-2048,-781,1737
1657083979970,-2048,-511,1536
1657083980010,-1322,35,1200
1657083980050,-47,352,721
1657083980090,194,641,-2
1657083980130,52,658,-367
1657083980170,-160,72,122
1657083980210,-510,-517,433
1657083980250,-611,-1102,526
1657083980290,-640,-1517,310
1657083980330,-719,-1420,297
1657083980370,-456,-1257,49
1657083980410,-372,-1026,-67
1657083980450,-370,-780,-27
1657083980490,-221,-701,35
1657083980530,-123,-769,255
1657083980570,-90,-655,137
1657083980610,-90,-639,121
1657083980650,62,-870,-317
1657083980690,-189,-1694,63
1657083980730,-1093,-1906,1006
1657083980770,-1478,-1076,636
1657083980810,-1020,-18,29
1657083980850,-85,325,-442
1657083980890,557,542,-346
1657083980930,966,690,-285
1657083980970,691,944,137
1657083981010,597,1480,461
1657083981050,-1429,2047,919
1657083981090,-2048,2047,517
1657083981130,-2048,1632,337
1657083981170,-2048,833,209
1657083981210,-1507,413,-136
1657083981250,-1261,244,-496
1657083981290,-1142,-91,-506
1657083981330,-1052,-258,-368
1657083981370,-1147,-97,-164
1657083981410,-1819,496,23
1657083981450,-2048,1380,182
1657083981490,-2048,2047,154
1657083981530,-1362,2047,41
1657083981570,-296,1458,156
1657083981610,216,933,446
1657083981650,610,700,474
1657083981690,795,551,344
1657083981730,1094,444,381
1657083981770,1021,802,252
1657083981810,388,1596,349
1657083981850,-2048,2047,79
1657083981890,-2048,1891,-461
1657083981930,-2048,927,-503
1657083981970,-1434,414,-526
1657083982010,-946,133,-668
1657083982050,-903,0,-526
1657083982090,-881,-209,-269
1657083982130,-702,-157,-206
1657083982170,-884,-34,-197
1657083982210,-2048,430,202
1657083982250,-2048,1575,345
1657083982290,-2048,2047,54
1657083982330,-1067,1543,118
1657083982370,-130,858,382
1657083982410,375,467,390
1657083982450,715,301,311
1657083982490,954,219,187
1657083982530,1013,566,111
1657083982570,1085,1157,94
1657083982610,445,1654,948
1657083982650,-2048,2047,1221
1657083982690,-2048,2047,376
1657083982730,-2048,1080,56
1657083982770,-1713,391,-19
1657083982810,-1218,41,-267
1657083982850,-992,-88,-382
1657083982890,-773,-90,-387
1657083982930,-772,-113,-209
1657083982970,-1496,152,115
1657083983010,-2048,1185,401
1657083983050,-2048,2047,220
1657083983090,-1731,2047,292
1657083983130,-577,1658,320
1657083983170,133,997,341
1657083983210,587,597,354
1657083983250,861,445,237
1657083983290,902,613,206
1657083983330,880,907,91
1657083983370,736,1436,303
1657083983410,-2048,2047,462
1657083983450,-2048,2047,216
1657083983490,-2048,1081,35
1657083983530,-1610,528,-115
1657083983570,-1187,140,-248
1657083983610,-1080,-23,-410
1657083983650,-1001,-139,-405
1657083983690,-997,-88,-312
1657083983730,-1258,114,-273
1657083983770,-2048,627,-67
1657083983810,-2048,1362,57
1657083983850,-2048,2047,89
1657083983890,-1321,2047,-77
1657083983930,-352,1254,239
1657083983970,116,603,437
1657083984010,387,308,395
1657083984050,534,312,264
1657083984090,553,661,184
1657083984130,1027,759,-50
1657083984170,468,1078,-39
1657083984210,-2048,2047,-118
1657083984250,-2048,1500,-279
1657083984290,-1633,615,-248
1657083984330,-1340,332,-289
1657083984370,-1151,139,-355
1657083984410,-971,-76,-460
1657083984450,-741,-186,-466
1657083984490,-791,-262,-288
1657083984530,-1210,-307,-114
1657083984570,-2048,929,-382
1657083984610,-2048,1574,-745
1657083984650,-2048,1679,-275
1657083984690,-1132,1550,-248
1657083984730,-355,1151,-83
1657083984770,147,904,242
1657083984810,434,792,354
1657083984850,737,832,412
1657083984890,1142,585,298
1657083984930,1094,753,241
1657083984970,-2048,2047,-359
1657083985010,-2048,1860,-757
1657083985050,-2048,961,-514
1657083985090,-1655,483,-420
1657083985130,-1218,-9,-278
1657083985170,-1102,-298,-92
1657083985210,-1030,-511,-100
1657083985250,-760,-337,-301
1657083985290,-997,56,-448
1657083985330,-2048,463,-404
1657083985370,-2048,910,-121
1657083985410,-2048,1572,-260
1657083985450,-1653,1482,-290
1657083985490,-894,979,-128
1657083985530,-394,829,161
1657083985570,45,799,350
1657083985610,329,695,443
1657083985650,611,617,450
1657083985690,1015,517,265
1657083985730,1130,668,125
1657083985770,-1602,2047,-35
1657083985810,-2048,2047,-313
1657083985850,-2048,1386,-482
1657083985890,-1554,742,-432
1657083985930,-1372,535,-379
1657083985970,-1246,194,-345
1657083986010,-1134,16,-381
1657083986050,-993,-82,-311
1657083986090,-926,-141,-250
1657083986130,-1506,195,-251
1657083986170,-2048,1179,-171
1657083986210,-2048,1868,-60
1657083986250,-1926,1995,-97
1657083986290,-997,1802,-25
1657083986330,-256,1305,164
1657083986370,156,940,502
1657083986410,385,606,521
1657083986450,727,645,208
1657083986490,1135,576,-80
1657083986530,1292,690,-45
1657083986570,703,1425,519
1657083986610,-2048,2047,518
1657083986650,-2048,2047,-88
1657083986690,-2007,1349,-145
1657083986730,-1927,1005,-282
1657083986770,-1676,523,-501
1657083986810,-1516,210,-753
1657083986850,-1455,72,-656
1657083986890,-1085,74,-535
1657083986930,-1091,235,-247
1657083986970,-2048,789,-46
1657083987010,-2048,1473,79
1657083987050,-2048,2047,-21
1657083987090,-1209,1910,-29
1657083987130,-360,1380,265
1657083987170,149,1030,442
1657083987210,519,811,501
1657083987250,971,659,569
1657083987290,1454,527,567
1657083987330,1381,1323,273
1657083987370,636,2047,639
1657083987410,-2048,2047,800
1657083987450,-2048,2047,261
1657083987490,-2048,1340,-289
1657083987530,-1854,589,-389
1657083987570,-1222,212,-597
1657083987610,-1057,26,-709
1657083987650,-946,-110,-596
1657083987690,-996,-36,-500
1657083987730,-1536,50,-212
1657083987770,-2048,750,581
1657083987810,-2048,1475,1612
1657083987850,-2048,1288,2046
1657083987890,-1308,1360,1349
1657083987930,-170,1135,545
1657083987970,136,890,-68
1657083988010,140,675,-148
1657083988050,-269,275,154
1657083988090,-661,-585,608
1657083988130,-519,-1209,621
1657083988170,-695,-1319,376
1657083988210,-623,-1246,513
1657083988250,-424,-1290,558
1657083988290,-354,-1007,210
1657083988330,-215,-797,-138
1657083988370,-101,-610,-25
1657083988410,-42,-668,235
1657083988450,-88,-379,107
1657083988490,117,-520,84
1657083988530,-200,-932,149
1657083988570,-1555,-1665,959
1657083988610,-1708,-1239,766
1657083988650,-1391,-803,49
1657083988690,-828,-318,-100
1657083988730,-389,-22,15
1657083988770,-36,72,97
1657083988810,180,249,-12
1657083988850,700,422,-202
1657083988890,-227,584,-316
1657083988930,-2048,888,326
1657083988970,-2048,712,-286
1657083989010,-1863,139,-617
1657083989050,-1078,-184,-732
1657083989090,-708,-247,-686
1657083989130,-585,-54,-527
1657083989170,-835,-117,-345
1657083989210,-726,-124,-320
1657083989250,-653,-187,-837
1657083989290,-909,559,-1168
1657083989330,-928,158,-991
1657083989370,-388,217,-1023
1657083989410,-289,607,-945
1657083989450,-91,463,-683
1657083989490,-118,683,-864
1657083989530,-243,527,-920
1657083989570,-348,131,-625
1657083989610,-462,255,-800
1657083989650,-334,453,-935
1657083989690,-807,756,-1170
1657083989730,-628,502,-1181
1657083989770,-372,110,-878
1657083989810,-421,-72,-842
1657083989850,-283,-87,-608
1657083989890,-371,83,-596
1657083989930,-481,198,-654
1657083989970,-509,438,-977
1657083990010,-638,479,-1064
1657083990050,-529,301,-929
1657083990090,-639,381,-1012
1657083990130,-727,395,-932
1657083990170,-644,525,-902
1657083990210,-457,761,-996
1657083990250,-46,519,-852
1657083990290,148,358,-693
1657083990330,293,285,-756
1657083990370,90,368,-876
1657083990410,-133,505,-874
1657083990450,-554,446,-973
1657083990490,-932,302,-937
1657083990530,-1126,94,-946
1657083990570,-1003,93,-1007
1657083990610,-722,192,-1073
1657083990650,-493,-84,-705
1657083990690,-392,-222,-477
1657083990730,-427,-10,-886
1657083990770,-422,-100,-720
1657083990810,-437,-5,-1085
1657083990850,-456,15,-1064
1657083990890,-589,-4,-1009
1657083990930,-516,12,-1386
1657083990970,-89,-248,-1161
1657083991010,-5,-320,-823
1657083991050,57,-259,-680
1657083991090,-177,-183,-542
1657083991130,-205,-174,-377
1657083991170,7,-23,-860
1657083991210,-974,-96,-1736
1657083991250,-27,131,-1944
1657083991290,-134,-163,-1335
1657083991330,-212,-368,-709
1657083991370,-316,-249,-950
1657083991410,-191,-408,-667
1657083991450,-384,-406,-266
1657083991490,-558,-319,-391
1657083991530,-366,-524,-169
1657083991570,-446,-564,-559
1657083991610,-1333,-686,-1207
1657083991650,-1732,-315,-1960
1657083991690,-748,-20,-1833
1657083991730,374,227,-1286
1657083991770,583,522,-661
1657083991810,606,377,-239
1657083991850,568,55,-36
1657083991890,-76,164,-608
1657083991930,-906,160,-1234
1657083991970,-1171,-474,-1091
1657083992010,-489,-592,-1165
1657083992050,98,-154,-1032
1657083992090,42,194,-1046
1657083992130,-304,510,-2048
1657083992170,-263,-14,-803
1657083992210,-3,-233,-479
1657083992250,-51,-348,-478
1657083992290,-355,-369,-757
1657083992330,-790,-468,-779
1657083992370,-248,-622,-371
1657083992410,580,-305,-121
1657083992450,-162,1955,-2048
1657083992490,-463,469,-2048
1657083992530,-344,-204,-454
1657083992570,-112,-392,-257
1657083992610,-97,-291,-220
1657083992650,-96,-151,-475
1657083992690,-126,-95,-719
1657083992730,-69,-318,-942
1657083992770,-517,-329,-889
1657083992810,-386,-39,-1809
1657083992850,122,-514,-1655
1657083992890,-121,330,-2012
1657083992930,-397,-237,-931
1657083992970,-207,-252,-480
1657083993010,-257,-289,-298
1657083993050,-53,-370,-482
1657083993090,-107,-443,-581
1657083993130,-633,-486,-760
1657083993170,-567,-325,-1327
1657083993210,-357,-394,-1354
1657083993250,-286,-204,-1372
1657083993290,-216,-147,-1161
1657083993330,-166,-289,-751
1657083993370,-140,-313,-505
1657083993410,-147,-217,-474
1657083993450,-207,19,-487
1657083993490,109,178,-850
1657083993530,-261,284,-1731
1657083993570,-749,409,-1861
1657083993610,-641,-276,-1185
1657083993650,-178,-617,-1281
1657083993690,-192,-370,-1055
1657083993730,-329,-411,-561
1657083993770,-394,-294,-605
1657083993810,-469,-241,-453
1657083993850,-110,-476,-249
1657083993890,-295,-201,-853
1657083993930,-1050,-260,-1327
1657083993970,-584,114,-2048
1657083994010,-319,195,-1410
1657083994050,-87,260,-799
1657083994090,142,205,-591
1657083994130,67,-255,-314
1657083994170,-545,140,-1306
1657083994210,-499,-149,-968
1657083994250,-67,104,-1125
1657083994290,151,-117,-617
1657083994330,-243,251,-1538
1657083994370,-500,92,-1452
1657083994410,-163,-273,-1207
1657083994450,-41,-400,-1002
1657083994490,-111,-323,-857
1657083994530,-240,-413,-552
1657083994570,-312,-367,-774
1657083994610,-202,-407,-809
1657083994650,-395,-215,-957
1657083994690,-1127,-128,-1284
1657083994730,-1504,-279,-1638
1657083994770,-1891,285,-1835
1657083994810,-1312,492,-1441
1657083994850,-137,372,-758
1657083994890,634,143,-119
1657083994930,1069,124,178
1657083994970,1159,284,292
1657083995010,1103,567,366
1657083995050,775,1269,121
1657083995090,468,1762,-96
1657083995130,-2045,2047,-655
1657083995170,-2048,2047,-790
1657083995210,-2048,1454,-776
1657083995250,-1530,505,-671
1657083995290,-1159,220,-778
1657083995330,-1207,29,-662
1657083995370,-1078,-195,-509
1657083995410,-1014,53,-452
1657083995450,-1303,387,-660
1657083995490,-2048,1097,-861
1657083995530,-1730,1587,-1158
1657083995570,-1129,1570,-1079
1657083995610,-373,1020,-529
1657083995650,128,648,31
1657083995690,436,369,488
1657083995730,897,243,796
1657083995770,1100,387,679
1657083995810,890,1314,331
1657083995850,339,1905,102
1657083995890,-2048,2047,-592
1657083995930,-2048,2047,-426
1657083995970,-1698,1222,-524
1657083996010,-1141,527,-576
1657083996050,-1150,77,-581
1657083996090,-1477,1,-509
1657083996130,-1240,-132,-496
1657083996170,-873,67,-528
1657083996210,-1412,403,-168
1657083996250,-2048,1391,-64
1657083996290,-2048,2047,-243
1657083996330,-1294,2047,-107
1657083996370,-24,1688,92
1657083996410,754,1026,511
1657083996450,1532,587,844
1657083996490,1453,417,830
1657083996530,1075,901,734
1657083996570,502,2047,699
1657083996610,-1107,2047,718
1657083996650,-2048,2047,142
1657083996690,-2048,2047,9
1657083996730,-1506,1269,-562
1657083996770,-1135,662,-932
1657083996810,-1382,360,-951
1657083996850,-1538,243,-677
1657083996890,-1186,272,-487
1657083996930,-1683,847,-25
1657083996970,-2048,1633,213
1657083997010,-2048,2047,178
1657083997050,-1486,2047,344
1657083997090,-422,2047,766
1657083997130,497,1489,1274
1657083997170,1971,929,1292
1657083997210,2046,276,1094
1657083997250,1358,1082,1204
1657083997290,235,2047,1040
1657083997330,-2048,2047,877
1657083997370,-2048,2047,187
1657083997410,-2048,1448,-337
1657083997450,-1514,569,-669
1657083997490,-1562,-93,-959
1657083997530,-1652,-468,-994
1657083997570,-1413,-457,-481
1657083997610,-1373,409,-42
1657083997650,-2048,1591,481
1657083997690,-2048,2047,598
1657083997730,-1245,2047,814
1657083997770,-27,1478,1148
1657083997810,992,782,1385
1657083997850,2046,-49,1066
1657083997890,1901,159,1243
1657083997930,1287,1497,827
1657083997970,156,2047,1163
1657083998010,-2048,2047,1274
1657083998050,-2048,2047,699
1657083998090,-2042,889,-205
1657083998130,-1288,31,-563
1657083998170,-1496,-549,-357
1657083998210,-1395,-473,-236
1657083998250,-1029,-138,-78
1657083998290,-1715,380,302
1657083998330,-2048,1839,214
1657083998370,-2048,2047,-219
1657083998410,-596,2047,182
1657083998450,453,1163,816
1657083998490,1052,506,1160
1657083998530,1463,-155,1156
1657083998570,1566,351,1166
1657083998610,1243,1493,675
1657083998650,419,2047,991
1657083998690,-2048,2047,814
1657083998730,-2048,2047,49
1657083998770,-1688,1277,-448
1657083998810,-912,543,-885
1657083998850,-1105,32,-623
1657083998890,-1514,-358,-353
1657083998930,-1357,-153,-171
1657083998970,-1379,144,59
1657083999010,-2048,1514,596
1657083999050,-2048,2047,427
1657083999090,-1206,2047,600
1657083999130,30,1627,887
1657083999170,775,1064,1179
1657083999210,2046,54,1060
1657083999250,2046,-202,1069
1657083999290,1587,1240,952
1657083999330,372,2047,966
1657083999370,-2048,2047,1213
1657083999410,-2048,2047,421
1657083999450,-2048,1609,-360
1657083999490,-1397,539,-627
1657083999530,-1729,18,-765
1657083999570,-1435,-122,-610
1657083999610,-1520,-91,-163
1657083999650,-1758,723,179
1657083999690,-2048,1948,470
1657083999730,-2048,2047,556
1657083999770,-1277,2047,951
1657083999810,-72,2012,1212
1657083999850,504,1232,1109
1657083999890,1466,397,934
1657083999930,2046,-349,908
1657083999970,2046,84,1081
1657084000010,1287,2047,1135
1657084000050,-2048,2047,1470
1657084000090,-2048,2047,1166
1657084000130,-2048,1473,-320
1657084000170,-1444,-38,-643
1657084000210,-1677,-530,-656
1657084000250,-1394,-349,-624
1657084000290,-803,-270,-315
1657084000330,-1044,-64,55
1657084000370,-2048,1676,118
1657084000410,-2048,2047,-17
1657084000450,-1453,2047,328
1657084000490,-335,1723,723
1657084000530,229,795,1069
1657084000570,871,-60,895
1657084000610,1431,-284,735
1657084000650,1529,107,648
1657084000690,1301,943,417
1657084000730,634,2047,580
1657084000770,-2048,2047,316
1657084000810,-2048,2047,-316
1657084000850,-1883,898,-268
1657084000890,-1132,35,-433
1657084000930,-1189,-237,-343
1657084000970,-1052,-353,-484
1657084001010,-570,-330,-530
1657084001050,-780,-181,-258
1657084001090,-2048,520,7
1657084001130,-2048,2047,24
1657084001170,-1995,2047,-143
1657084001210,-548,1737,158
1657084001250,93,863,529
1657084001290,374,374,620
1657084001330,730,94,616
1657084001370,1293,303,721
1657084001410,1704,400,763
1657084001450,1120,2047,688
1657084001490,-1984,2047,760
1657084001530,-2048,2047,107
1657084001570,-2048,1957,-278
1657084001610,-1498,468,-456
1657084001650,-1300,69,-670
1657084001690,-1308,-10,-856
1657084001730,-998,-102,-652
1657084001770,-703,-100,-351
1657084001810,-1567,305,-139
1657084001850,-2048,1854,-113
1657084001890,-2048,2047,39
1657084001930,-782,2047,295
1657084001970,-62,1455,404
1657084002010,279,718,606
1657084002050,710,231,638
1657084002090,1009,76,580
1657084002130,1096,223,590
1657084002170,961,898,441
1657084002210,-1241,2047,11
1657084002250,-2048,2047,-662
1657084002290,-2048,1364,-662
1657084002330,-1126,360,-814
1657084002370,-974,-10,-601
1657084002410,-1146,-201,-433
1657084002450,-783,-203,-411
1657084002490,-592,-364,-211
1657084002530,-1537,-27,-166
1657084002570,-2048,1823,-562
1657084002610,-2048,2047,-798
1657084002650,-759,1824,-438
1657084002690,-58,1070,154
1657084002730,331,494,621
1657084002770,833,140,708
1657084002810,1108,60,741
1657084002850,833,573,500
1657084002890,23,1471,-151
1657084002930,-2048,2047,-825
1657084002970,-2048,1580,-596
1657084003010,-1481,517,-720
1657084003050,-1080,231,-914
1657084003090,-750,-166,-797
1657084003130,-859,-389,-695
1657084003170,-861,43,-706
1657084003210,-691,-183,-260
1657084003250,-1419,534,-983
1657084003290,-801,1070,-1778
1657084003330,-394,911,-1052
1657084003370,-72,413,-140
1657084003410,408,374,193
1657084003450,248,-195,485
1657084003490,-597,1828,-1628
1657084003530,-350,1637,-675
1657084003570,-250,598,-977
1657084003610,-265,34,-1068
1657084003650,-448,385,-938
1657084003690,-549,346,-1447
1657084003730,-257,-339,-585
1657084003770,289,-745,-335
1657084003810,-201,146,233
1657084003850,-130,1219,-806
1657084003890,-917,834,-2048
1657084003930,-818,1525,-1405
1657084003970,-432,392,-903
1657084004010,1,-789,-255
1657084004050,285,-866,-350
1657084004090,311,293,-233
1657084004130,159,659,-274
1657084004170,-362,1600,14
1657084004210,-1826,2047,-1456
1657084004250,-34,1189,-496
1657084004290,439,130,-432
1657084004330,-18,539,-545
1657084004370,-555,364,-868
1657084004410,-236,265,-1192
1657084004450,153,238,-1161
1657084004490,-151,-183,-774
1657084004530,-389,-426,-548
1657084004570,-610,-99,-841
1657084004610,-639,-40,-941
1657084004650,-714,259,-1032
1657084004690,-349,208,-890
1657084004730,76,1047,-1411
1657084004770,28,769,-80
1657084004810,942,1777,1211
1657084004850,-171,1338,-1547
1657084004890,-527,249,-1604
1657084004930,-285,-338,-541
1657084004970,-278,229,-612
1657084005010,-84,716,-1103
1657084005050,-215,822,-1421
1657084005090,-92,276,-888
1657084005130,-135,-92,-917
1657084005170,-25,35,-1155
1657084005210,-565,39,-1047
1657084005250,-292,-33,-815
1657084005290,158,149,116
1657084005330,109,199,-1375
1657084005370,-594,2047,-752
1657084005410,-282,1142,-1108
1657084005450,-555,669,-624
1657084005490,-475,330,-832
1657084005530,-455,371,-810
1657084005570,-78,156,-807
1657084005610,109,-198,-456
1657084005650,-43,-70,187
1657084005690,1275,514,-2048
1657084005730,190,1051,-1292
1657084005770,-286,920,-869
1657084005810,-556,345,-881
1657084005850,-328,180,-1004
1657084005890,-10,-88,-884
1657084005930,-347,-203,-846
1657084005970,-112,-20,-360
1657084006010,631,106,-45
1657084006050,-1759,2047,-1193
1657084006090,-661,1144,-1264
1657084006130,-439,665,-627
1657084006170,-106,-598,-263
1657084006210,-607,-126,-826
1657084006250,-394,284,-967
1657084006290,-275,96,-552
1657084006330,-126,339,-247
1657084006370,422,144,-129
1657084006410,732,142,247
1657084006450,755,685,303
1657084006490,215,2047,-3
1657084006530,-2048,2047,-1134
1657084006570,-2048,1944,-570
1657084006610,-1380,515,-718
1657084006650,-676,128,-1122
1657084006690,-912,-317,-945
1657084006730,-743,-292,-691
1657084006770,-684,-267,-508
1657084006810,-1363,11,-147
1657084006850,-2048,1780,-821
1657084006890,-2048,2047,-1335
1657084006930,-1237,2047,-665
1657084006970,-220,1608,339
1657084007010,205,1125,974
1657084007050,926,477,1069
1657084007090,1540,85,1198
1657084007130,1266,497,927
1657084007170,887,1864,239
1657084007210,-1389,2047,-429
1657084007250,-2048,2047,-1097
1657084007290,-2048,872,-421
1657084007330,-1273,-187,-581
1657084007370,-1411,-407,-698
1657084007410,-1317,-757,-659
1657084007450,-1024,-328,-670
1657084007490,-2048,308,-111
1657084007530,-2048,2047,15
1657084007570,-2048,2047,174
1657084007610,-843,2047,860
1657084007650,313,1419,1083
1657084007690,1049,880,1192
1657084007730,2046,-23,1420
1657084007770,2046,2,1539
1657084007810,1018,2047,906
1657084007850,-2048,2047,756
1657084007890,-2048,2047,-394
1657084007930,-2048,873,-436
1657084007970,-1347,-65,-538
1657084008010,-663,-671,-733
1657084008050,-630,-464,-886
1657084008090,-814,-282,-688
1657084008130,-1143,-286,-98
1657084008170,-2048,1071,103
1657084008210,-2048,2047,62
1657084008250,-1822,2047,438
1657084008290,-279,1601,744
1657084008330,435,742,893
1657084008370,1384,64,885
1657084008410,2046,2,941
1657084008450,1783,696,820
1657084008490,1062,2047,868
1657084008530,-2048,2047,925
1657084008570,-2048,2047,-86
1657084008610,-2048,1254,-387
1657084008650,-1571,71,-611
1657084008690,-1109,-295,-847
1657084008730,-886,-307,-975
1657084008770,-779,-282,-504
1657084008810,-1743,41,-63
1657084008850,-2048,1970,-460
1657084008890,-2048,2047,-303
1657084008930,-810,1987,420
1657084008970,284,1177,607
1657084009010,815,588,645
1657084009050,1130,114,855
1657084009090,1173,155,799
1657084009130,797,1054,530
1657084009170,-307,1977,100
1657084009210,-2048,2047,-842
1657084009250,-2048,1651,-908
1657084009290,-1421,1006,-1580
1657084009330,-501,95,-1494
1657084009370,-707,-466,-1151
1657084009410,-173,-332,-857
1657084009450,-615,-193,29
1657084009490,-1085,485,-531
1657084009530,-724,877,-1564
1657084009570,-669,1065,-1124
1657084009610,232,699,-892
1657084009650,1174,179,-375
1657084009690,860,485,-684
1657084009730,-72,619,-646
1657084009770,-324,496,-734
1657084009810,-1572,735,-1548
1657084009850,-1186,319,-1058
1657084009890,-493,515,-1353
1657084009930,14,-430,-4
1657084009970,-1117,1177,-1871
1657084010010,813,75,324
1657084010050,-399,256,-1716
1657084010090,28,411,-719
1657084010130,36,389,-928
1657084010170,306,1263,-1232
1657084010210,-364,829,-1120
1657084010250,-31,552,-955
1657084010290,-148,527,-1063
1657084010330,-181,585,-748
1657084010370,-266,707,-869
1657084010410,-213,322,-1064
1657084010450,70,519,-766
1657084010490,-326,436,-760
1657084010530,290,584,-641
1657084010570,-118,643,-840
1657084010610,-415,646,-878
1657084010650,-141,622,-859
1657084010690,-20,425,-765
1657084010730,-258,573,-888
1657084010770,56,705,-684
1657084010810,-220,554,-613
1657084010850,-258,231,-711
1657084010890,45,554,-661
1657084010930,-387,526,-1014
1657084010970,-488,619,-807
1657084011010,-103,426,-634
1657084011050,-78,416,-1130
1657084011090,10,482,-870
1657084011130,-88,597,-833
1657084011170,-143,621,-422
1657084011210,-621,590,-923
1657084011250,-223,428,-884
1657084011290,-286,429,-969
1657084011330,-188,642,-727
1657084011370,-192,633,-775
1657084011410,-201,521,-834
1657084011450,-18,546,-880
1657084011490,-89,640,-436
1657084011530,-673,142,-814
1657084011570,-161,341,-775
1657084011610,-426,560,-849
1657084011650,-284,612,-939
1657084011690,-186,539,-573
1657084011730,-305,537,-1069
1657084011770,-34,478,-864
1657084011810,-288,517,-922
1657084011850,-5,560,-713
1657084011890,-780,422,-1127
1657084011930,-276,424,-758
1657084011970,-206,352,-952
1657084012010,-243,536,-801
1657084012050,-194,628,-753
1657084012090,-314,498,-963
1657084012130,-37,590,-824
1657084012170,-23,429,-564
1657084012210,-622,302,-837
1657084012250,-91,253,-786
1657084012290,-465,477,-882
1657084012330,-260,533,-840
1657084012370,-222,520,-670
1657084012410,-546,767,341
1657084012450,-78,527,-792
1657084012490,-203,503,-1022
1657084012530,-265,685,-772
1657084012570,-117,426,-668
1657084012610,-292,462,-1079
1657084012650,-236,644,-780
1657084012690,-353,497,-965
1657084012730,-180,591,-759
1657084012770,-177,611,-837
1657084012810,-155,452,-940
1657084012850,-131,643,-691
1657084012890,-85,652,-857
1657084012930,-654,590,-1341
1657084012970,-135,452,-910
1657084013010,-461,412,-1028
1657084013050,-244,577,-752
1657084013090,-208,484,-713
1657084013130,-337,545,-1151
1657084013170,-106,510,-833
1657084013210,-218,480,-919
1657084013250,14,574,-824
1657084013290,-695,425,-988
1657084013330,-133,388,-830
1657084013370,-509,585,-1057
1657084013410,-327,648,-819
1657084013450,-156,620,-745
1657084013490,-210,563,-850
1657084013530,-180,474,-899
1657084013570,-162,643,-725
1657084013610,-76,449,-643
1657084013650,-282,460,-999
1657084013690,-159,472,-724
1657084013730,-363,483,-961
1657084013770,-338,519,-909
1657084013810,-145,567,-731
1657084013850,-273,609,-913
1657084013890,-224,471,-831
1657084013930,-151,433,-977
1657084013970,-111,491,-862
1657084014010,-398,465,-825
1657084014050,-183,355,-806
1657084014090,-121,452,-951
1657084014130,-364,521,-825
1657084014170,-194,595,-693
1657084014210,-324,538,-965
1657084014250,-61,489,-871
1657084014290,-133,585,-824
1657084014330,58,596,-371
1657084014370,-612,369,-1042
1657084014410,-284,497,-853
1657084014450,-503,242,-1024
1657084014490,-222,524,-807
1657084014530,-828,-235,-855
1657084014570,-529,791,-1131
1657084014610,163,262,-961
1657084014650,-427,491,-1192
1657084014690,-99,354,-1100
1657084014730,-122,78,-1028
1657084014770,-295,858,-1350
1657084014810,-1203,617,-1342
1657084014850,-692,261,-450
1657084014890,-148,75,-258
1657084014930,94,-294,-723
1657084014970,240,487,-1985
1657084015010,-548,56,-1552
1657084015050,-1233,79,-638
1657084015090,-1902,140,156
1657084015130,-2048,1086,1889
1657084015170,-2048,1758,1278
1657084015210,-1548,1646,984
1657084015250,-96,1167,850
1657084015290,1022,894,618
1657084015330,1807,653,410
1657084015370,1739,798,410
1657084015410,1155,1488,417
1657084015450,353,2047,788
1657084015490,-1361,2047,1589
1657084015530,-2048,2047,1497
1657084015570,-2048,2047,1051
1657084015610,-2048,1503,601
1657084015650,-1817,489,-154
1657084015690,-1271,224,-787
1657084015730,-835,70,-796
1657084015770,-703,-30,-392
1657084015810,-1057,213,169
1657084015850,-2048,1662,1036
1657084015890,-2048,2047,980
1657084015930,-1332,2047,387
1657084015970,-399,1789,688
1657084016010,204,1344,905
1657084016050,883,1020,784
1657084016090,1916,689,753
1657084016130,2046,382,768
1657084016170,1662,1631,647
1657084016210,240,2047,547
1657084016250,-2041,2047,1171
1657084016290,-2048,2047,532
1657084016330,-2048,1892,410
1657084016370,-1798,1201,-389
1657084016410,-1480,436,-973
1657084016450,-1223,-41,-985
1657084016490,-1502,-17,-587
1657084016530,-1789,411,31
1657084016570,-2048,1978,305
1657084016610,-2048,2047,211
1657084016650,-1504,2047,118
1657084016690,-321,2047,348
1657084016730,347,1457,613
1657084016770,1373,834,849
1657084016810,2046,356,720
1657084016850,822,239,-337
1657084016890,-1822,1263,-1604
1657084016930,-2048,333,-1356
1657084016970,-1263,-165,-937
1657084017010,-1022,125,-828
1657084017050,-567,105,-878
1657084017090,-397,-94,-558
1657084017130,-298,23,-694
1657084017170,-366,177,-770
1657084017210,-365,-6,-742
1657084017250,-518,27,-829
1657084017290,-602,43,-1225
1657084017330,-569,63,-1217
1657084017370,-407,289,-1286
1657084017410,-368,333,-1074
1657084017450,-67,38,-637
1657084017490,55,-66,-557
1657084017530,-8,4,-652
1657084017570,-264,185,-1004
1657084017610,-250,452,-1542
1657084017650,-528,189,-1250
1657084017690,-369,-153,-1125
1657084017730,-267,-327,-1051
1657084017770,-452,-307,-705
1657084017810,-375,-341,-614
1657084017850,-540,-203,-826
1657084017890,-511,-119,-742
1657084017930,-573,-173,-702
1657084017970,-982,-5,-1143
1657084018010,-639,-33,-1431
1657084018050,-352,-116,-1330
1657084018090,-54,209,-1142
1657084018130,-17,297,-902
1657084018170,146,59,-439
1657084018210,185,-48,-458
1657084018250,-196,129,-773
1657084018290,-365,297,-1036
1657084018330,-376,288,-1400
1657084018370,-553,-72,-1222
1657084018410,-356,-37,-1432
1657084018450,-266,-58,-1222
1657084018490,-393,-232,-828
1657084018530,-266,-323,-700
1657084018570,-480,-181,-748
1657084018610,-372,-153,-703
1657084018650,-400,-148,-873
1657084018690,-492,-129,-865
1657084018730,-632,-181,-1144
1657084018770,-768,85,-1637
1657084018810,-360,121,-1525
1657084018850,-435,163,-834
1657084018890,39,195,-560
1657084018930,71,56,-261
1657084018970,65,377,-188
1657084019010,347,426,93
1657084019050,606,617,225
1657084019090,88,1219,-451
1657084019130,-1161,2047,-2048
1657084019170,-1911,1715,-1910
1657084019210,-1441,684,-1454
1657084019250,-886,99,-1105
1657084019290,-627,-109,-948
1657084019330,-541,-281,-631
1657084019370,-797,20,-342
1657084019410,-1133,271,-388
1657084019450,-2048,891,-47
1657084019490,-2048,1823,-491
1657084019530,-1355,1879,-729
1657084019570,-652,1126,-1
1657084019610,-38,879,97
1657084019650,462,936,186
1657084019690,1007,691,474
1657084019730,1489,499,878
1657084019770,1239,1267,663
1657084019810,-105,2047,-100
1657084019850,-2048,2047,63
1657084019890,-2048,1853,-71
1657084019930,-2048,846,-569
1657084019970,-1454,326,-930
1657084020010,-741,-73,-1433
1657084020050,-575,-142,-1177
1657084020090,-821,-233,-375
1657084020130,-2044,162,546
1657084020170,-2048,1282,450
1657084020210,-2048,2047,360
1657084020250,-2048,2047,190
1657084020290,-376,1806,418
1657084020330,361,1102,646
1657084020370,1166,775,734
1657084020410,2046,178,733
1657084020450,1749,560,761
1657084020490,1242,2047,476
1657084020530,-750,2047,1076
1657084020570,-2048,2047,1289
1657084020610,-2048,2016,-333
1657084020650,-2048,732,-406
1657084020690,-1184,190,-999
1657084020730,-624,-2,-1167
1657084020770,-586,-126,-776
1657084020810,-977,-130,-311
1657084020850,-1905,75,248
1657084020890,-2048,1233,331
1657084020930,-2048,2047,-51
1657084020970,-1701,2047,7
1657084021010,-294,1468,316
1657084021050,552,905,690
1657084021090,1227,717,659
1657084021130,1795,402,664
1657084021170,1353,891,671
1657084021210,1000,2047,464
1657084021250,-2048,2047,830
1657084021290,-2048,2047,368
1657084021330,-2048,1347,-203
1657084021370,-2048,381,-560
1657084021410,-1057,99,-1174
1657084021450,-795,13,-924
1657084021490,-570,-146,-573
1657084021530,-932,-208,-13
1657084021570,-2048,164,298
1657084021610,-2048,1430,368
1657084021650,-2048,2047,252
1657084021690,-1194,2047,108
1657084021730,34,1314,325
1657084021770,560,913,615
1657084021810,1368,652,841
1657084021850,1680,327,991
1657084021890,1254,1070,832
1657084021930,606,2047,545
1657084021970,-2048,2047,725
1657084022010,-2048,2047,160
1657084022050,-2048,1051,-200
1657084022090,-1863,150,-457
1657084022130,-1370,-33,-1054
1657084022170,-1174,-126,-984
1657084022210,-1039,-381,-389
1657084022250,-1671,67,15
1657084022290,-2048,1295,-36
1657084022330,-2048,2047,-57
1657084022370,-2048,2047,-328
1657084022410,-663,1827,-260
1657084022450,10,1047,411
1657084022490,444,790,642
1657084022530,1155,525,756
1657084022570,1431,373,938
1657084022610,1429,1453,582
1657084022650,836,2047,564
1657084022690,-2048,2047,520
1657084022730,-2048,2047,-690
1657084022770,-2048,1205,-808
1657084022810,-1818,15,-814
1657084022850,-1068,-162,-1056
1657084022890,-883,-311,-818
1657084022930,-777,-471,-434
1657084022970,-1242,-73,-416
1657084023010,-2048,772,-437
1657084023050,-2048,1893,-655
1657084023090,-2048,2047,-552
1657084023130,-778,2028,-440
1657084023170,22,1240,274
1657084023210,677,860,977
1657084023250,1075,603,932
1657084023290,1149,686,934
1657084023330,1151,1241,681
1657084023370,563,2047,553
1657084023410,-2048,2047,498
1657084023450,-2048,2047,-1043
1657084023490,-2048,1779,-444
1657084023530,-2048,284,-289
1657084023570,-1084,-312,-817
1657084023610,-852,-357,-810
1657084023650,-944,-181,-495
1657084023690,-1253,182,-296
1657084023730,-2048,1115,-218
1657084023770,-2048,1942,-490
1657084023810,-1999,2047,-749
1657084023850,-724,1925,-593
1657084023890,-32,1067,224
1657084023930,491,807,864
1657084023970,887,650,897
1657084024010,1037,547,845
1657084024050,985,1013,449
1657084024090,173,2047,62
1657084024130,-2048,2047,-438
1657084024170,-2048,1958,-433
1657084024210,-2048,1546,-562
1657084024250,-2048,638,-541
1657084024290,-1638,16,-627
1657084024330,-1102,-284,-628
1657084024370,-983,-557,-311
1657084024410,-1070,-36,-461
1657084024450,-2048,537,-270
1657084024490,-2048,1477,-138
1657084024530,-1943,2001,-373
1657084024570,-958,1718,-407
1657084024610,-250,1176,-167
1657084024650,323,632,311
1657084024690,565,460,521
1657084024730,770,493,454
1657084024770,712,738,406
1657084024810,511,1392,303
1657084024850,-2009,2047,-334
1657084024890,-2048,1745,-419
1657084024930,-2048,1291,-371
1657084024970,-1685,668,-673
1657084025010,-1308,300,-706
1657084025050,-1106,-19,-540
1657084025090,-806,-397,-330
1657084025130,-963,-373,-176
1657084025170,-1458,-88,-252
1657084025210,-2048,976,-296
1657084025250,-2048,1716,-433
1657084025290,-1675,2047,-626
1657084025330,-348,1613,-545
1657084025370,480,977,222
1657084025410,997,612,857
1657084025450,1289,480,731
1657084025490,908,822,535
1657084025530,597,1340,398
1657084025570,-1461,2047,-3
1657084025610,-2048,2047,-489
1657084025650,-2048,1612,-136
1657084025690,-2048,813,-312
1657084025730,-1538,135,-560
1657084025770,-1179,-152,-700
1657084025810,-900,-346,-586
1657084025850,-729,-257,-429
1657084025890,-1398,-12,-206
1657084025930,-2048,855,89
1657084025970,-2048,1745,127
1657084026010,-2048,2047,-126
1657084026050,-707,1859,-214
1657084026090,253,993,440
1657084026130,1281,469,661
1657084026170,1367,569,618
1657084026210,923,765,620
1657084026250,727,1446,617
1657084026290,-23,2047,657
1657084026330,-2048,2047,381
1657084026370,-2048,2047,152
1657084026410,-2048,1056,-191
1657084026450,-1423,324,-512
1657084026490,-977,45,-674
1657084026530,-834,-40,-744
1657084026570,-764,-49,-485
1657084026610,-971,-154,-103
1657084026650,-2048,671,86
1657084026690,-2048,1631,118
1657084026730,-2048,2047,-102
1657084026770,-1121,2047,-301
1657084026810,-190,1407,-110
1657084026850,274,940,396
1657084026890,808,805,722
1657084026930,1359,499,791
1657084026970,1227,741,847
1657084027010,812,1801,226
1657084027050,-2048,2047,-847
1657084027090,-2048,2047,-762
1657084027130,-2048,1067,-514
1657084027170,-1788,561,-481
1657084027210,-1202,74,-635
1657084027250,-1081,-227,-732
1657084027290,-898,-377,-477
1657084027330,-1131,-352,-241
1657084027370,-2048,363,-226
1657084027410,-2048,1514,-564
1657084027450,-2048,1924,-269
1657084027490,-1740,2005,-90
1657084027530,-437,1720,-305
1657084027570,198,916,165
1657084027610,847,634,701
1657084027650,1345,411,786
1657084027690,1064,662,748
1657084027730,768,1375,413
1657084027770,-1088,2047,-192
1657084027810,-2048,2047,-527
1657084027850,-2048,1395,-81
1657084027890,-2048,792,-73
1657084027930,-1724,-81,-248
1657084027970,-1062,-338,-612
1657084028010,-945,-474,-464
1657084028050,-935,-343,-353
1657084028090,-1530,162,-396
1657084028130,-2048,903,-89
1657084028170,-2048,1640,86
1657084028210,-1942,1992,-59
1657084028250,-514,1538,-255
1657084028290,194,863,301
1657084028330,775,456,849
1657084028370,1262,519,923
1657084028410,1277,426,846
1657084028450,999,1193,569
1657084028490,-1681,2047,-65
1657084028530,-2048,2047,-882
1657084028570,-2048,1315,-654
1657084028610,-2048,504,-301
1657084028650,-1204,-225,-367
1657084028690,-768,-312,-634
1657084028730,-775,-372,-546
1657084028770,-879,-373,-377
1657084028810,-1734,87,-409
1657084028850,-2048,1127,-578
1657084028890,-2048,1608,400
1657084028930,-1398,1846,-2
1657084028970,-95,1431,-198
1657084029010,421,772,195
1657084029050,759,529,561
1657084029090,1132,601,646
1657084029130,1135,817,530
1657084029170,885,1379,531
1657084029210,-1550,2047,446
1657084029250,-2048,2047,235
1657084029290,-2048,1440,177
1657084029330,-2048,1005,-43
1657084029370,-2048,494,-443
1657084029410,-1862,28,-703
1657084029450,-1163,-328,-806
1657084029490,-843,-255,-588
1657084029530,-1160,121,-114
1657084029570,-2048,1015,151
1657084029610,-2048,2047,-168
1657084029650,-1767,2047,-73
1657084029690,-733,1764,-42
1657084029730,-124,934,381
1657084029770,429,676,541
1657084029810,1103,606,646
1657084029850,1395,770,748
1657084029890,1135,1558,606
1657084029930,-1227,2047,279
1657084029970,-2048,2047,-245
1657084030010,-2048,1048,-703
1657084030050,-1832,651,-704
1657084030090,-888,70,-668
1657084030130,-831,-98,-700
1657084030170,-704,-294,-555
1657084030210,-668,-342,-366
1657084030250,-1205,30,-384
1657084030290,-2048,1009,-827
1657084030330,-2048,1598,-967
1657084030370,-1870,1816,-625
1657084030410,-273,1528,-634
1657084030450,500,910,1
1657084030490,801,417,582
1657084030530,1087,64,759
1657084030570,1077,75,638
1657084030610,261,1187,-59
1657084030650,-2048,2047,-1194
1657084030690,-2048,1772,-1309
1657084030730,-1636,661,-772
1657084030770,-1281,557,-1074
1657084030810,-707,189,-1290
1657084030850,-709,-367,-967
1657084030890,-1068,-533,-432
1657084030930,-521,-393,-297
1657084030970,-603,191,-463
1657084031010,-232,30,-672
1657084031050,16,183,-1070
1657084031090,-134,193,-338
1657084031130,-1453,1473,-1057
1657084031170,-331,-17,-2048
1657084031210,-944,-87,7
1657084031250,376,-432,36
1657084031290,64,-256,-404
1657084031330,122,-192,-31
1657084031370,-2048,301,-2048
1657084031410,104,-36,-2048
1657084031450,-157,-403,-793
1657084031490,-141,-488,-309
1657084031530,-381,-200,-1120
1657084031570,-326,-330,-1204
1657084031610,-410,-227,-673
1657084031650,-218,-239,-146
1657084031690,199,-123,-21
1657084031730,515,-585,-1022
1657084031770,-782,-407,-1963
1657084031810,-624,104,-1657
1657084031850,-199,-726,-523
1657084031890,-148,-432,-305
1657084031930,-151,-11,-557
1657084031970,101,-244,-169
1657084032010,-110,-294,-11
1657084032050,-168,73,-701
1657084032090,1967,2047,-2048
1657084032130,-233,-188,-2048
1657084032170,-828,124,-1178
1657084032210,-229,-433,-940
1657084032250,-269,-443,-581
1657084032290,-26,-452,-530
1657084032330,-50,-591,-295
1657084032370,-277,-416,-114
1657084032410,-517,-417,-642
1657084032450,-743,-331,-1167
1657084032490,-1087,-306,-1433
1657084032530,-774,-292,-1507
1657084032570,-742,-344,-914
1657084032610,-426,253,-1118
1657084032650,-83,56,-786
1657084032690,424,-64,-468
1657084032730,432,40,-251
1657084032770,196,218,-413
1657084032810,-133,462,-844
1657084032850,-496,469,-1266
1657084032890,-756,717,-1711
1657084032930,-1020,514,-1390
1657084032970,-1094,163,-1398
1657084033010,-444,-71,-1338
1657084033050,-352,-310,-1048
1657084033090,-800,-580,-480
1657084033130,-611,-369,-861
1657084033170,-710,-228,-1343
1657084033210,-1153,-250,-1129
1657084033250,-982,-119,-1289
1657084033290,-485,225,-985
1657084033330,-30,586,-1386
1657084033370,218,405,-413
1657084033410,279,133,101
1657084033450,96,267,-1266
1657084033490,-600,148,-2048
1657084033530,-210,-299,-833
1657084033570,-314,-366,-944
1657084033610,-339,-268,-927
1657084033650,-205,-768,-312
1657084033690,-336,-594,-524
1657084033730,-554,-435,-938
1657084033770,-139,-462,-743
1657084033810,81,-55,-82
1657084033850,-306,1663,-2048
1657084033890,-16,95,-2048
1657084033930,-621,125,-1512
1657084033970,-184,-921,149
1657084034010,-5,-683,221
1657084034050,-216,-148,-1003
1657084034090,-385,-14,-1343
1657084034130,-237,-291,-1108
1657084034170,-303,-331,-681
1657084034210,-77,-348,-80
1657084034250,122,33,-331
1657084034290,57,-170,-1434
1657084034330,-438,285,-1881
1657084034370,-533,-219,-778
1657084034410,-172,-675,-404
1657084034450,-184,-517,-575
1657084034490,-236,-447,-1039
1657084034530,-209,-789,-483
1657084034570,-434,-517,-481
1657084034610,-406,-475,-276
1657084034650,-495,-277,-437
1657084034690,-190,-555,-193
1657084034730,-95,125,-1576
1657084034770,-120,-345,-1380
1657084034810,-412,359,-1891
1657084034850,-225,-505,-423
1657084034890,-117,-452,-125
1657084034930,-543,44,-240
1657084034970,-321,88,-280
1657084035010,-211,481,-116
1657084035050,601,435,-377
1657084035090,213,878,-1269
1657084035130,-708,958,-1550
1657084035170,-1376,895,-2048
1657084035210,-976,155,-1917
1657084035250,-1148,295,-1161
1657084035290,-824,-317,-1281
1657084035330,-783,-382,-773
1657084035370,-1036,-100,-570
1657084035410,-2048,366,-223
1657084035450,-2048,1841,-404
1657084035490,-2048,2047,-758
1657084035530,-1116,1972,-249
1657084035570,-106,1184,248
1657084035610,866,777,704
1657084035650,1502,337,789
1657084035690,1276,284,722
1657084035730,910,1064,506
1657084035770,363,1810,440
1657084035810,-2048,2047,-1
1657084035850,-2048,2047,-29
1657084035890,-2048,1342,-187
1657084035930,-1695,524,-275
1657084035970,-1076,235,-671
1657084036010,-952,24,-831
1657084036050,-862,-110,-624
1657084036090,-1236,77,-459
1657084036130,-2048,531,311
1657084036170,-2048,1105,709
1657084036210,-2048,2047,440
1657084036250,-1104,2047,277
1657084036290,165,1213,364
1657084036330,758,778,772
1657084036370,1506,410,975
1657084036410,1499,326,956
1657084036450,920,1020,774
1657084036490,462,2047,826
1657084036530,-2048,2047,971
1657084036570,-2048,2047,437
1657084036610,-2048,1474,0
1657084036650,-1872,437,-244
1657084036690,-1043,103,-642
1657084036730,-970,-141,-784
1657084036770,-1011,-289,-538
1657084036810,-945,-229,-387
1657084036850,-2048,440,81
1657084036890,-2048,1461,-205
1657084036930,-2048,2047,-102
1657084036970,-1568,2047,-145
1657084037010,-193,1401,193
1657084037050,674,774,622
1657084037090,1268,444,797
1657084037130,1378,237,936
1657084037170,1141,715,778
1657084037210,859,1709,479
1657084037250,-1752,2047,40
1657084037290,-2048,2047,-405
1657084037330,-2048,1340,-417
1657084037370,-1709,591,-554
1657084037410,-1105,81,-630
1657084037450,-1041,-235,-623
1657084037490,-894,-551,-498
1657084037530,-963,-254,-448
1657084037570,-2048,301,-144
1657084037610,-2048,1487,-320
1657084037650,-2048,2047,-302
1657084037690,-1518,2047,-146
1657084037730,-189,1612,26
1657084037770,486,992,542
1657084037810,1198,530,847
1657084037850,1545,394,946
1657084037890,1288,729,759
1657084037930,646,1817,428
1657084037970,-2048,2047,-154
1657084038010,-2048,2047,-422
1657084038050,-2048,1101,-350
1657084038090,-1947,293,-374
1657084038130,-1281,-18,-684
1657084038170,-915,-160,-783
1657084038210,-659,-444,-482
1657084038250,-769,-305,-290
1657084038290,-1912,195,-268
1657084038330,-2048,1566,-309
1657084038370,-2048,2047,-472
1657084038410,-822,1750,-281
1657084038450,-54,962,319
1657084038490,731,648,699
1657084038530,1378,380,678
1657084038570,1102,448,624
1657084038610,568,1251,361
1657084038650,-437,1767,188
1657084038690,-2048,2047,-671
1657084038730,-2048,1498,-396
1657084038770,-1859,766,-474
1657084038810,-1267,405,-654
1657084038850,-855,123,-687
1657084038890,-935,-183,-344
1657084038930,-699,-262,-239
1657084038970,-739,-142,-192
1657084039010,-2048,363,2
1657084039050,-2048,1838,-535
1657084039090,-2048,2047,-811
1657084039130,-974,1719,-513
1657084039170,-66,1127,-32
1657084039210,581,672,336
1657084039250,1023,556,570
1657084039290,1368,471,797
1657084039330,1322,850,728
1657084039370,520,2047,563
1657084039410,-2048,2047,199
1657084039450,-2048,2047,117
1657084039490,-2048,1452,-82
1657084039530,-2048,624,-331
1657084039570,-1472,-53,-646
1657084039610,-1140,-305,-722
1657084039650,-779,-368,-533
1657084039690,-942,-166,-293
1657084039730,-2048,458,-117
1657084039770,-2048,1590,-294
1657084039810,-1980,1895,-484
1657084039850,-1054,1597,-651
1657084039890,-473,1248,-240
1657084039930,133,706,424
1657084039970,518,466,539
1657084040010,749,587,478
1657084040050,724,700,478
1657084040090,489,1092,387
1657084040130,-2048,2047,-425
1657084040170,-2048,1868,-887
1657084040210,-2048,599,-624
1657084040250,-1813,523,-739
1657084040290,-1012,138,-872
1657084040330,-680,-82,-629
1657084040370,-586,-356,-384
1657084040410,-471,-316,-256
1657084040450,-844,2,-411
1657084040490,-2048,592,-533
1657084040530,-2048,1283,-682
1657084040570,-2048,1806,-750
1657084040610,-961,1377,-520
1657084040650,-232,924,13
1657084040690,432,539,305
1657084040730,811,443,353
1657084040770,876,456,362
1657084040810,801,926,231
1657084040850,870,1408,326
1657084040890,-1012,2047,441
1657084040930,-2048,2047,358
1657084040970,-2048,1490,101
1657084041010,-1754,876,-517
1657084041050,-1033,90,-591
1657084041090,-1151,-106,-625
1657084041130,-1168,-343,-618
1657084041170,-894,-402,-484
1657084041210,-1215,-60,-296
1657084041250,-2048,488,-118
1657084041290,-2048,1558,125
1657084041330,-2048,2047,146
1657084041370,-1011,1845,-2
1657084041410,-122,1130,287
1657084041450,576,661,386
1657084041490,1037,506,406
1657084041530,1246,399,527
1657084041570,995,939,538
1657084041610,83,1971,249
1657084041650,-2048,2047,-217
1657084041690,-2048,1508,-213
1657084041730,-2048,701,-192
1657084041770,-1442,135,-509
1657084041810,-1176,-100,-640
1657084041850,-1185,-241,-551
1657084041890,-737,-365,-410
1657084041930,-1064,-91,-265
1657084041970,-2048,399,54
1657084042010,-2048,1358,-66
1657084042050,-2048,2047,-407
1657084042090,-926,1707,-557
1657084042130,-220,1129,-244
1657084042170,224,845,230
1657084042210,725,654,515
1657084042250,1103,393,563
1657084042290,859,879,459
1657084042330,672,1414,159
1657084042370,-2048,2047,76
1657084042410,-2048,2038,-361
1657084042450,-2048,1086,-388
1657084042490,-1705,617,-499
1657084042530,-988,67,-637
1657084042570,-1045,-70,-630
1657084042610,-1024,-273,-551
1657084042650,-970,-306,-425
1657084042690,-1551,-60,-141
1657084042730,-2048,893,-80
1657084042770,-2048,1585,131
1657084042810,-2048,2047,-144
1657084042850,-969,1699,31
1657084042890,-63,1012,381
1657084042930,772,592,448
1657084042970,1102,623,557
1657084043010,1145,589,662
1657084043050,1061,945,416
1657084043090,63,1650,299
1657084043130,-2048,2047,99
1657084043170,-2048,1654,-407
1657084043210,-2029,725,-484
1657084043250,-1348,183,-541
1657084043290,-1168,-37,-657
1657084043330,-1211,-230,-475
1657084043370,-915,-327,-296
1657084043410,-1045,-80,-413
1657084043450,-2048,461,-363
1657084043490,-2048,1003,-202
1657084043530,-2048,1626,1
1657084043570,-1567,1612,-107
1657084043610,-446,1349,-79
1657084043650,252,943,245
1657084043690,1057,551,569
1657084043730,1345,365,650
1657084043770,887,788,591
1657084043810,849,1443,422
1657084043850,-2048,2047,128
1657084043890,-2048,2047,-473
1657084043930,-2048,1284,-636
1657084043970,-1728,533,-487
1657084044010,-1073,86,-634
1657084044050,-962,-98,-659
1657084044090,-999,-325,-454
1657084044130,-832,-333,-397
1657084044170,-1302,-29,-386
1657084044210,-2048,871,-311
1657084044250,-2048,1452,-278
1657084044290,-2048,2024,-214
1657084044330,-951,2004,-213
1657084044370,-72,1280,172
1657084044410,404,774,327
1657084044450,357,852,422
1657084044490,1186,589,827
1657084044530,1980,114,609
1657084044570,1129,2025,628
1657084044610,-2048,2047,240
1657084044650,-2048,2026,-70
1657084044690,-2048,404,-32
1657084044730,-1511,-344,-29
1657084044770,-699,-763,-372
1657084044810,-541,-511,-531
1657084044850,-435,-410,-572
1657084044890,-1252,-285,-346
1657084044930,-2048,529,-215
1657084044970,-2048,1295,-82
1657084045010,-2048,1825,-18
1657084045050,-596,1669,-179
1657084045090,310,818,364
1657084045130,838,438,834
1657084045170,1133,417,796
1657084045210,1061,584,654
1657084045250,945,1152,424
1657084045290,-679,2047,264
1657084045330,-2048,2047,-239
1657084045370,-2048,1490,-595
1657084045410,-2048,899,-772
1657084045450,-1803,-21,-925
1657084045490,-1047,-294,-823
1657084045530,-717,-447,-557
1657084045570,-316,-317,-454
1657084045610,-886,-100,-336
1657084045650,-2048,559,-328
1657084045690,-2048,1486,-91
1657084045730,-2048,1923,-23
1657084045770,-907,1599,-358
1657084045810,68,865,118
1657084045850,692,318,501
1657084045890,1001,421,425
1657084045930,976,656,328
1657084045970,859,805,636
1657084046010,175,1422,418
1657084046050,-2048,2047,-160
1657084046090,-2048,1845,-594
1657084046130,-2048,1052,-640
1657084046170,-2032,416,-619
1657084046210,-975,-138,-803
1657084046250,-858,-285,-719
1657084046290,-882,-520,-448
1657084046330,-732,-233,-486
1657084046370,-1495,108,-606
1657084046410,-2048,936,-543
1657084046450,-2048,1337,-667
1657084046490,-2048,2006,-553
1657084046530,-678,1678,-160
1657084046570,525,772,477
1657084046610,886,219,750
1657084046650,834,534,891
1657084046690,1078,797,582
1657084046730,1179,1398,327
1657084046770,-1071,2047,350
1657084046810,-2048,2047,-182
1657084046850,-2048,1578,101
1657084046890,-2048,1391,-359
1657084046930,-1725,125,-148
1657084046970,-1412,-358,-218
1657084047010,-1098,-533,-476
1657084047050,-766,-424,-672
1657084047090,-1259,-20,-647
1657084047130,-2048,736,-578
1657084047170,-2048,1429,-924
1657084047210,-2048,2045,-548
1657084047250,-1152,1776,-347
1657084047290,-162,1438,391
1657084047330,364,1005,890
1657084047370,1059,608,881
1657084047410,1444,279,775
1657084047450,1112,660,628
1657084047490,-404,1898,242
1657084047530,-2048,2047,-586
1657084047570,-2048,1783,-767
1657084047610,-2048,1160,-827
1657084047650,-1747,220,-675
1657084047690,-1002,-110,-722
1657084047730,-804,-331,-690
1657084047770,-612,-299,-660
1657084047810,-1107,-381,-429
1657084047850,-1981,413,-626
1657084047890,-2048,1119,-1099
1657084047930,-2048,1834,-926
1657084047970,-1161,1859,-787
1657084048010,-206,1220,-157
1657084048050,365,777,587
1657084048090,820,535,498
1657084048130,1029,583,555
1657084048170,905,637,646
1657084048210,673,1090,414
1657084048250,-2048,2047,-286
1657084048290,-2048,2038,-611
1657084048330,-2048,1141,-702
1657084048370,-1736,606,-738
1657084048410,-1125,84,-675
1657084048450,-1002,-72,-784
1657084048490,-938,-392,-645
1657084048530,-892,-440,-470
1657084048570,-1601,188,-523
1657084048610,-2048,592,-450
1657084048650,-2048,1420,-526
1657084048690,-2048,1837,-458
1657084048730,-830,1298,-312
1657084048770,-94,1032,157
1657084048810,523,751,478
1657084048850,947,699,473
1657084048890,969,881,547
1657084048930,931,1088,422
1657084048970,-1543,2047,-217
1657084049010,-2048,2047,-874
1657084049050,-2048,863,-718
1657084049090,-1837,504,-688
1657084049130,-1070,77,-766
1657084049170,-807,-261,-677
1657084049210,-736,-530,-542
1657084049250,-706,-445,-330
1657084049290,-1156,-186,-332
1657084049330,-2048,737,-601
1657084049370,-2048,1566,-1012
1657084049410,-2048,1718,-807
1657084049450,-1284,1383,-427
1657084049490,-483,906,154
1657084049530,270,648,423
1657084049570,686,773,497
1657084049610,1009,771,538
1657084049650,921,904,419
1657084049690,-196,1509,-73
1657084049730,-2048,2047,-485
1657084049770,-2048,1200,-229
1657084049810,-2017,805,-232
1657084049850,-1880,664,-318
1657084049890,-1709,28,-297
1657084049930,-1158,-186,-478
1657084049970,-732,-420,-404
1657084050010,-856,-481,-197
1657084050050,-1739,-101,-383
1657084050090,-2048,1009,-569
1657084050130,-2048,1640,-528
1657084050170,-1709,1687,-594
1657084050210,-633,1343,-367
1657084050250,14,803,198
1657084050290,554,572,475
1657084050330,919,642,518
1657084050370,938,724,581
1657084050410,948,916,446
1657084050450,-1433,2047,-163
1657084050490,-2048,2047,-705
1657084050530,-2048,942,-710
1657084050570,-1574,417,-644
1657084050610,-1013,172,-662
1657084050650,-809,-136,-649
1657084050690,-833,-365,-510
1657084050730,-910,-392,-351
1657084050770,-1395,46,-555
1657084050810,-2048,504,-691
1657084050850,-2048,1119,-794
1657084050890,-2048,1896,-705
1657084050930,-1026,1448,-318
1657084050970,-232,1084,57
1657084051010,475,937,269
1657084051050,934,703,416
1657084051090,928,646,572
1657084051130,814,1057,365
1657084051170,13,1628,86
1657084051210,-2048,2047,-110
1657084051250,-2048,1297,-43
1657084051290,-2048,1253,-39
1657084051330,-2048,740,-556
1657084051370,-1505,75,-831
1657084051410,-1147,-297,-697
1657084051450,-814,-282,-491
1657084051490,-1047,-82,-425
1657084051530,-2009,342,-312
1657084051570,-2048,1240,-487
1657084051610,-2048,1469,-601
1657084051650,-1429,1512,-527
1657084051690,-570,1009,-115
1657084051730,105,566,338
1657084051770,500,493,395
1657084051810,775,699,392
1657084051850,893,766,439
1657084051890,558,1431,100
1657084051930,-2048,2047,-594
1657084051970,-2048,1615,-489
1657084052010,-2048,872,-451
1657084052050,-1658,460,-496
1657084052090,-1203,-7,-464
1657084052130,-979,-193,-610
1657084052170,-814,-310,-590
1657084052210,-746,-397,-410
1657084052250,-1267,-171,-374
1657084052290,-2048,754,-556
1657084052330,-2048,1485,-825
1657084052370,-2042,1763,-611
1657084052410,-811,1538,-551
1657084052450,-239,919,-82
1657084052490,200,661,390
1657084052530,607,520,411
1657084052570,904,652,507
1657084052610,950,757,411
1657084052650,-275,1626,-55
1657084052690,-2048,2047,-722
1657084052730,-2048,1310,-637
1657084052770,-1976,823,-541
1657084052810,-1407,287,-462
1657084052850,-903,-107,-430
1657084052890,-854,-294,-538
1657084052930,-906,-386,-551
1657084052970,-1118,-292,-522
1657084053010,-1971,196,-536
1657084053050,-2048,1050,-600
1657084053090,-2048,1628,-718
1657084053130,-1370,1739,-608
1657084053170,-484,1170,-172
1657084053210,109,814,347
1657084053250,575,696,517
1657084053290,945,635,562
1657084053330,966,589,505
1657084053370,817,1166,259
1657084053410,-2048,2047,-643
1657084053450,-2048,1738,-865
1657084053490,-2048,838,-587
1657084053530,-1682,360,-573
1657084053570,-1087,61,-647
1657084053610,-905,-148,-531
1657084053650,-772,-408,-279
1657084053690,-546,-431,-279
1657084053730,-1460,-27,-405
1657084053770,-2048,708,-486
1657084053810,-2048,1337,-683
1657084053850,-2024,1723,-615
1657084053890,-763,1610,-544
1657084053930,-147,981,-45
1657084053970,304,695,386
1657084054010,574,544,457
1657084054050,808,674,529
1657084054090,975,651,346
1657084054130,-348,1651,-257
1657084054170,-2048,2047,-1089
1657084054210,-2048,1093,-644
1657084054250,-1716,618,-484
1657084054290,-1331,369,-467
1657084054330,-956,-25,-367
1657084054370,-943,-324,-251
1657084054410,-737,-551,-324
1657084054450,-1167,-434,-482
1657084054490,-2048,362,-764
1657084054530,-2048,839,-889
1657084054570,-2048,1421,-732
1657084054610,-1133,1274,-587
1657084054650,-295,1103,-295
1657084054690,201,860,186
1657084054730,665,749,648
1657084054770,973,829,782
1657084054810,954,889,477
1657084054850,-736,1726,-377
1657084054890,-2048,2047,-934
1657084054930,-2048,905,-517
1657084054970,-1963,600,-547
1657084055010,-1337,112,-563
1657084055050,-958,-180,-582
1657084055090,-1103,-210,-498
1657084055130,-984,-296,-433
1657084055170,-1120,-150,-367
1657084055210,-2048,521,-417
1657084055250,-2048,807,-637
1657084055290,-2048,1582,-800
1657084055330,-1050,1534,-690
1657084055370,-458,870,-111
1657084055410,-12,677,300
1657084055450,352,625,284
1657084055490,624,529,445
1657084055530,630,812,490
1657084055570,671,1137,201
1657084055610,-1666,2047,-653
1657084055650,-2048,2022,-1053
1657084055690,-2048,884,-896
1657084055730,-1691,455,-722
1657084055770,-973,-65,-658
1657084055810,-681,-273,-738
1657084055850,-787,-402,-414
1657084055890,-785,-488,-286
1657084055930,-1572,83,-632
1657084055970,-2048,708,-800
1657084056010,-2048,1395,-950
1657084056050,-1884,1848,-928
1657084056090,-843,1216,-434
1657084056130,-258,971,110
1657084056170,244,933,395
1657084056210,673,871,602
1657084056250,937,706,514
1657084056290,1110,713,278
1657084056330,-505,1566,-172
1657084056370,-2048,2047,-939
1657084056410,-2048,1080,-919
1657084056450,-1678,569,-785
1657084056490,-1179,259,-669
1657084056530,-814,-32,-575
1657084056570,-753,-336,-435
1657084056610,-667,-549,-254
1657084056650,-1239,-273,-313
1657084056690,-2048,353,-670
1657084056730,-2048,875,-1031
1657084056770,-2048,1665,-875
1657084056810,-1186,1402,-513
1657084056850,-603,1108,-19
1657084056890,7,876,333
1657084056930,540,822,500
1657084056970,955,712,556
1657084057010,1031,704,452
1657084057050,705,1068,195
1657084057090,-2048,2047,-789
1657084057130,-2048,1384,-1035
1657084057170,-2022,785,-914
1657084057210,-1533,340,-821
1657084057250,-997,-47,-812
1657084057290,-779,-314,-719
1657084057330,-827,-537,-393
1657084057370,-716,-458,-374
1657084057410,-1617,48,-650
1657084057450,-2048,833,-634
1657084057490,-2048,1321,-605
1657084057530,-1772,1696,-690
1657084057570,-698,1197,-420
1657084057610,-107,779,210
1657084057650,444,759,359
1657084057690,853,685,489
1657084057730,996,652,595
1657084057770,936,969,335
1657084057810,-1471,2047,-479
1657084057850,-2048,2047,-1100
1657084057890,-2048,845,-852
1657084057930,-1734,422,-727
1657084057970,-1253,-9,-507
1657084058010,-855,-341,-503
1657084058050,-708,-326,-456
1657084058090,-483,-431,-319
1657084058130,-1098,-72,-479
1657084058170,-2048,433,-645
1657084058210,-2048,1022,-864
1657084058250,-2048,1492,-914
1657084058290,-965,1299,-815
1657084058330,-299,941,-340
1657084058370,178,787,231
1657084058410,533,748,438
1657084058450,807,615,637
1657084058490,911,577,568
1657084058530,-182,951,-102
1657084058570,-2048,2047,-1492
1657084058610,-2048,871,-981
1657084058650,-1803,474,-756
1657084058690,-1508,324,-656
1657084058730,-980,-158,-541
1657084058770,-789,-245,-471
1657084058810,-593,-437,-279
1657084058850,-525,-574,-160
1657084058890,-1807,-8,-697
1657084058930,-2048,868,-1185
1657084058970,-2048,1225,-1058
1657084059010,-1611,1381,-822
1657084059050,-585,1273,-439
1657084059090,-19,848,42
1657084059130,487,712,480
1657084059170,881,712,590
1657084059210,946,554,590
1657084059250,945,1034,408
1657084059290,-1138,2047,-245
1657084059330,-2048,2047,-1267
1657084059370,-2048,1308,-1021
1657084059410,-2048,536,-699
1657084059450,-1446,-63,-505
1657084059490,-935,-279,-637
1657084059530,-826,-322,-559
1657084059570,-489,-478,-437
1657084059610,-764,-239,-325
1657084059650,-2027,104,-343
1657084059690,-2048,1279,-626
1657084059730,-2048,1758,-912
1657084059770,-1154,1693,-687
1657084059810,-258,1041,-76
1657084059850,265,704,360
1657084059890,674,588,357
1657084059930,969,519,456
1657084059970,822,828,497
1657084060010,461,1395,167
1657084060050,-2048,2047,-871
1657084060090,-2048,2047,-1188
1657084060130,-2048,1017,-636
1657084060170,-1962,402,-219
1657084060210,-1200,-326,-202
1657084060250,-910,-474,-345
1657084060290,-881,-547,-207
1657084060330,-700,-343,-304
1657084060370,-1530,135,-615
1657084060410,-2048,805,-1183
1657084060450,-2048,1752,-1251
1657084060490,-1773,2046,-798
1657084060530,-698,1323,-253
1657084060570,-108,909,378
1657084060610,396,907,518
1657084060650,906,646,622
1657084060690,1028,434,638
1657084060730,870,694,314
1657084060770,-1975,2047,-1313
1657084060810,-2048,1557,-1783
1657084060850,-1546,396,-949
1657084060890,-1346,349,-853
1657084060930,-939,103,-802
1657084060970,-721,-68,-614
1657084061010,-683,-191,-474
1657084061050,-513,-407,-378
1657084061090,-1230,-129,-506
1657084061130,-2048,385,-956
1657084061170,-2048,752,-1369
1657084061210,-2048,1272,-1257
1657084061250,-1046,1469,-963
1657084061290,-221,1011,-113
1657084061330,334,753,582
1657084061370,762,605,678
1657084061410,1062,438,645
1657084061450,961,652,530
1657084061490,-130,1269,-266
1657084061530,-2048,2047,-1754
1657084061570,-2048,1223,-1221
1657084061610,-1780,328,-727
1657084061650,-1361,39,-478
1657084061690,-950,-250,-431
1657084061730,-759,-303,-547
1657084061770,-547,-331,-386
1657084061810,-507,-218,-374
1657084061850,-1781,64,-624
1657084061890,-2048,642,-911
1657084061930,-2048,1307,-916
1657084061970,-2048,1295,-579
1657084062010,-650,1236,-239
1657084062050,209,925,255
1657084062090,773,727,658
1657084062130,1157,498,696
1657084062170,1208,449,828
1657084062210,904,1328,616
1657084062250,-1699,2047,-317
1657084062290,-2048,2047,-982
1657084062330,-2048,1191,-705
1657084062370,-2048,286,-370
1657084062410,-1488,-454,-316
1657084062450,-928,-526,-522
1657084062490,-681,-506,-553
1657084062530,-516,-380,-483
1657084062570,-1370,23,-539
1657084062610,-2048,421,-189
1657084062650,-2048,1140,-222
1657084062690,-2048,1520,-340
1657084062730,-1114,1717,-352
1657084062770,4,935,109
1657084062810,377,493,749
1657084062850,657,266,915
1657084062890,1237,335,741
1657084062930,1409,818,595
1657084062970,81,2047,622
1657084063010,-2048,2047,34
1657084063050,-2048,2047,-531
1657084063090,-2048,686,-438
1657084063130,-2048,-104,-523
1657084063170,-1610,-418,-739
1657084063210,-872,-155,-983
1657084063250,-573,-189,-760
1657084063290,-1242,-29,-239
1657084063330,-2048,-35,120
1657084063370,-2048,1450,-413
1657084063410,-2048,1953,-506
1657084063450,-1751,1967,-334
1657084063490,-263,1310,109
1657084063530,585,662,446
1657084063570,665,306,726
1657084063610,891,198,723
1657084063650,1044,443,429
1657084063690,844,1154,244
1657084063730,-1437,2047,-276
1657084063770,-2048,2047,-493
1657084063810,-2048,2036,-128
1657084063850,-2048,616,-376
1657084063890,-1487,-95,-375
1657084063930,-1049,-388,-526
1657084063970,-922,-518,-551
1657084064010,-818,-307,-565
1657084064050,-1181,62,-657
1657084064090,-2048,654,-525
1657084064130,-2048,1166,-370
1657084064170,-2048,1793,-747
1657084064210,-908,1643,-776
1657084064250,-154,989,-13
1657084064290,349,626,556
1657084064330,627,584,547
1657084064370,853,494,533
1657084064410,869,683,250
1657084064450,-847,1586,-897
1657084064490,-2048,2047,-1908
1657084064530,-2048,444,-880
1657084064570,-1715,153,-672
1657084064610,-1209,100,-603
1657084064650,-688,-195,-377
1657084064690,-489,-327,-275
1657084064730,-346,-379,-156
1657084064770,-688,-302,-272
1657084064810,-2048,125,-780
1657084064850,-2048,628,-1059
1657084064890,-2048,958,-1059
1657084064930,-1233,1283,-851
1657084064970,-137,877,-316
1657084065010,403,534,273
1657084065050,672,560,535
1657084065090,817,503,556
1657084065130,788,824,483
1657084065170,264,1590,-55
1657084065210,-2048,2047,-1462
1657084065250,-2048,1679,-1328
1657084065290,-2048,696,-835
1657084065330,-1697,197,-491
1657084065370,-968,-244,-384
1657084065410,-605,-184,-406
1657084065450,-462,-288,-240
1657084065490,-673,-276,-250
1657084065530,-1669,219,-543
1657084065570,-2048,517,-642
1657084065610,-2048,1261,-977
1657084065650,-1408,1469,-1055
1657084065690,-324,979,-662
1657084065730,95,611,61
1657084065770,286,657,357
1657084065810,685,589,406
1657084065850,889,500,501
1657084065890,872,754,438
1657084065930,-1084,2047,-428
1657084065970,-2048,2047,-1009
1657084066010,-2048,1423,-802
1657084066050,-1987,497,-516
1657084066090,-1469,-33,-266
1657084066130,-961,-408,-225
1657084066170,-800,-465,-285
1657084066210,-739,-342,-279
1657084066250,-754,-258,-480
1657084066290,-2048,331,-773
1657084066330,-2048,710,-618
1657084066370,-2048,1384,-738
1657084066410,-1064,1690,-770
1657084066450,-29,956,-34
1657084066490,458,568,542
1657084066530,805,585,707
1657084066570,875,424,633
1657084066610,843,812,553
1657084066650,-415,2047,-192
1657084066690,-2048,2047,-1551
1657084066730,-2048,1304,-1152
1657084066770,-1876,479,-916
1657084066810,-1243,-28,-607
1657084066850,-996,-363,-520
1657084066890,-924,-371,-583
1657084066930,-523,-403,-533
1657084066970,-899,-74,-486
1657084067010,-2048,447,-530
1657084067050,-2048,1095,-926
1657084067090,-2048,1847,-1185
1657084067130,-642,1310,-847
1657084067170,16,643,-4
1657084067210,249,441,486
1657084067250,467,558,530
1657084067290,654,512,404
1657084067330,600,696,285
1657084067370,-213,1015,-214
1657084067410,-2048,2047,-1647
1657084067450,-2048,659,-1351
1657084067490,-1731,155,-944
1657084067530,-1442,243,-941
1657084067570,-719,-134,-908
1657084067610,-524,-506,-673
1657084067650,-785,-394,-629
1657084067690,-679,-189,-725
1657084067730,-987,379,-968
1657084067770,-1116,385,-948
1657084067810,-376,358,-1331
1657084067850,-509,288,-847
1657084067890,-183,618,-397
1657084067930,873,-130,114
1657084067970,-535,1717,-1502
1657084068010,-448,842,-1058
1657084068050,13,-9,-247
1657084068090,488,-386,238
1657084068130,-148,2047,-2048
1657084068170,18,1145,-1676
1657084068210,-847,231,-834
1657084068250,49,-20,-748
1657084068290,-293,58,-938
1657084068330,-437,133,-855
1657084068370,-477,-379,-298
1657084068410,-171,-271,-406
1657084068450,-153,354,-124
1657084068490,358,1998,2046
1657084068530,-79,1190,-1611
1657084068570,-584,946,-1354
1657084068610,240,-781,-173
1657084068650,-99,-377,-101
1657084068690,108,658,-253
1657084068730,-1133,2047,-1607
1657084068770,16,713,-1551
1657084068810,-580,1905,-1023
1657084068850,-290,414,-301
1657084068890,-28,-254,-290
1657084068930,-206,344,-570
1657084068970,2,-220,-551
1657084069010,-2048,1871,-2048
1657084069050,-79,734,-1653
1657084069090,-901,868,-2048
1657084069130,-230,-469,-444
1657084069170,-10,-391,85
1657084069210,272,-408,306
1657084069250,-760,899,-976
1657084069290,-1633,1188,-1367
1657084069330,-339,654,-1387
1657084069370,301,-495,-595
1657084069410,-178,-50,-135
1657084069450,325,-48,75
1657084069490,168,35,477
1657084069530,-1084,722,-222
1657084069570,81,936,-1123
1657084069610,373,490,-447
1657084069650,-147,581,-364
1657084069690,-371,543,-729
1657084069730,-283,165,-964
1657084069770,-183,399,-1141
1657084069810,-168,79,-1047
1657084069850,-219,-237,-655
1657084069890,-242,-219,-593
1657084069930,-266,-112,-752
1657084069970,-804,101,-943
1657084070010,-1454,61,-1470
1657084070050,-2048,1126,-2048
1657084070090,-1415,1359,-1834
1657084070130,-427,1151,-793
1657084070170,118,774,76
1657084070210,1051,353,280
1657084070250,1437,275,452
1657084070290,902,928,240
1657084070330,679,1371,49
1657084070370,-197,2047,60
1657084070410,-2035,2047,-950
1657084070450,-2048,2047,-1024
1657084070490,-2048,1400,-1337
1657084070530,-1020,388,-1316
1657084070570,-558,-139,-871
1657084070610,-918,-548,-548
1657084070650,-759,-632,-468
1657084070690,-745,-546,-305
1657084070730,-1202,-42,-547
1657084070770,-2048,900,-1341
1657084070810,-2048,1604,-1735
1657084070850,-1632,2047,-1720
1657084070890,-412,1701,-801
1657084070930,-3,1157,141
1657084070970,787,956,643
1657084071010,1208,807,909
1657084071050,1003,792,705
1657084071090,675,1698,-24
1657084071130,-647,2047,-682
1657084071170,-2048,2047,-2048
1657084071210,-2048,1354,-974
1657084071250,-1771,564,-1059
1657084071290,-956,-42,-974
1657084071330,-727,-308,-839
1657084071370,-582,-450,-731
1657084071410,-560,-509,-375
1657084071450,-1042,-277,-454
1657084071490,-2048,479,-1017
1657084071530,-2048,1385,-1539
1657084071570,-2048,2047,-1569
1657084071610,-1039,1807,-907
1657084071650,-228,1458,-59
1657084071690,593,1139,512
1657084071730,1414,1045,1119
1657084071770,1286,795,1209
1657084071810,1108,1822,615
1657084071850,-900,2047,-529
1657084071890,-2048,2047,-1475
1657084071930,-2048,1495,-1414
1657084071970,-1999,613,-998
1657084072010,-1052,-105,-707
1657084072050,-575,-353,-688
1657084072090,-573,-465,-576
1657084072130,-762,-404,-437
1657084072170,-1407,70,-695
1657084072210,-2048,868,-1112
1657084072250,-2048,1458,-1366
1657084072290,-2048,1971,-1081
1657084072330,-812,1740,-621
1657084072370,77,1146,241
1657084072410,839,1016,1025
1657084072450,1540,843,1330
1657084072490,1327,819,1131
1657084072530,770,2047,403
1657084072570,-2048,2047,-891
1657084072610,-2048,2047,-911
1657084072650,-2048,1429,-1057
1657084072690,-2006,396,-670
1657084072730,-1315,-164,-547
1657084072770,-674,-338,-785
1657084072810,-304,-562,-555
1657084072850,-799,-600,-244
1657084072890,-1934,140,-594
1657084072930,-2048,916,-718
1657084072970,-2048,1737,-67
1657084073010,-1862,2047,-274
1657084073050,-274,1605,-6
1657084073090,758,1019,802
1657084073130,1739,655,1118
1657084073170,1630,584,1157
1657084073210,1193,1620,831
1657084073250,-673,2047,95
1657084073290,-2048,2047,-650
1657084073330,-2048,1291,-758
1657084073370,-2048,605,-855
1657084073410,-1059,-147,-1022
1657084073450,-1003,-422,-937
1657084073490,-903,-593,-610
1657084073530,-694,-475,-384
1657084073570,-1621,259,-702
1657084073610,-2048,1163,-588
1657084073650,-2048,1888,-470
1657084073690,-1812,2047,-524
1657084073730,-344,1449,12
1657084073770,311,986,701
1657084073810,1426,511,980
1657084073850,1732,496,1162
1657084073890,1137,1263,823
1657084073930,518,2047,190
1657084073970,-2048,2047,-341
1657084074010,-2048,2032,-507
1657084074050,-2048,1003,-481
1657084074090,-1886,89,-383
1657084074130,-1109,-464,-498
1657084074170,-735,-237,-893
1657084074210,-634,-367,-748
1657084074250,-1018,-381,-369
1657084074290,-2048,835,-502
1657084074330,-2048,1286,-588
1657084074370,-2048,1952,-66
1657084074410,-1351,2047,-212
1657084074450,-18,1355,-1
1657084074490,654,755,554
1657084074530,1296,707,866
1657084074570,1476,440,902
1657084074610,898,1057,683
1657084074650,-254,2047,165
1657084074690,-2048,2047,-470
1657084074730,-2048,1418,-460
1657084074770,-2048,771,-664
1657084074810,-1592,-46,-832
1657084074850,-1170,-367,-756
1657084074890,-972,-511,-610
1657084074930,-606,-392,-389
1657084074970,-1269,-8,-408
1657084075010,-2048,673,-460
1657084075050,-2048,1674,-601
1657084075090,-2048,1850,-684
1657084075130,-868,1521,-413
1657084075170,42,1000,14
1657084075210,665,677,494
1657084075250,1022,655,617
1657084075290,1054,326,579
1657084075330,643,1030,435
1657084075370,-864,1693,-237
1657084075410,-2048,2047,-1121
1657084075450,-2048,1118,-886
1657084075490,-2048,639,-842
1657084075530,-1315,242,-776
1657084075570,-823,-78,-683
1657084075610,-709,-187,-543
1657084075650,-501,-443,-466
1657084075690,-598,-261,-516
1657084075730,-1864,196,-662
1657084075770,-2048,807,-867
1657084075810,-2048,1183,-967
1657084075850,-1446,1598,-985
1657084075890,-380,1035,-386
1657084075930,160,617,404
1657084075970,763,575,726
1657084076010,1100,412,649
1657084076050,861,835,610
1657084076090,477,1543,437
1657084076130,-2048,2047,-646
1657084076170,-2048,1823,-1100
1657084076210,-2048,912,-882
1657084076250,-1829,402,-989
1657084076290,-1177,-135,-944
1657084076330,-948,-385,-733
1657084076370,-686,-340,-551
1657084076410,-625,-179,-505
1657084076450,-1938,363,-550
1657084076490,-2048,1144,-746
1657084076530,-2048,1643,-1003
1657084076570,-1676,1656,-883
1657084076610,-646,1008,-232
1657084076650,70,693,346
1657084076690,727,464,495
1657084076730,1228,567,675
1657084076770,966,680,629
1657084076810,614,1200,370
1657084076850,-1454,2047,-713
1657084076890,-2048,2047,-1225
1657084076930,-2048,815,-739
1657084076970,-1860,430,-741
1657084077010,-1323,-9,-698
1657084077050,-860,-144,-670
1657084077090,-706,-340,-448
1657084077130,-752,-375,-282
1657084077170,-760,-94,-359
1657084077210,-1935,282,-598
1657084077250,-2048,1064,-1028
1657084077290,-2048,1523,-1098
1657084077330,-1425,1415,-878
1657084077370,-334,1090,-233
1657084077410,398,645,317
1657084077450,932,463,623
1657084077490,1119,453,705
1657084077530,886,983,511
1657084077570,739,1385,398
1657084077610,-1578,2047,-674
1657084077650,-2048,2047,-953
1657084077690,-2048,1482,-722
1657084077730,-2048,853,-515
1657084077770,-1379,73,-614
1657084077810,-988,-179,-782
1657084077850,-859,-461,-690
1657084077890,-806,-242,-688
1657084077930,-1367,205,-680
1657084077970,-2048,1000,-684
1657084078010,-2048,1758,-748
1657084078050,-1899,2047,-763
1657084078090,-694,1686,-634
1657084078130,-151,1080,-75
1657084078170,482,805,503
1657084078210,1043,685,588
1657084078250,1121,669,674
1657084078290,941,1006,481
1657084078330,395,1709,319
1657084078370,-2048,2047,-736
1657084078410,-2048,2045,-944
1657084078450,-2048,1094,-922
1657084078490,-1510,406,-851
1657084078530,-1038,-55,-878
1657084078570,-1079,-195,-839
1657084078610,-762,-249,-736
1657084078650,-1061,-24,-639
1657084078690,-2019,508,-471
1657084078730,-2048,1225,-640
1657084078770,-2048,1723,-650
1657084078810,-1250,1678,-616
1657084078850,-362,1390,-423
1657084078890,124,917,260
1657084078930,743,647,717
1657084078970,1106,489,687
1657084079010,885,824,556
1657084079050,837,1447,294
1657084079090,-1132,2047,-310
1657084079130,-2048,2047,-315
1657084079170,-2048,1502,-204
1657084079210,-2048,1002,-459
1657084079250,-1700,283,-745
1657084079290,-1175,80,-1231
1657084079330,-896,-228,-1063
1657084079370,-1369,-276,-664
1657084079410,-2048,565,-437
1657084079450,-2048,1457,-477
1657084079490,-2048,2047,-236
1657084079530,-2048,2047,-47
1657084079570,-907,2002,380
1657084079610,335,1113,736
1657084079650,949,800,814
1657084079690,1754,444,1000
1657084079730,1957,238,1189
1657084079770,1238,1628,289
1657084079810,-2048,2047,-1118
1657084079850,-2048,439,-768
1657084079890,-2048,-139,-1050
1657084079930,-2036,-407,-678
1657084079970,-852,-697,-31
1657084080010,-648,-361,338
1657084080050,-503,70,259
1657084080090,-489,162,87
1657084080130,-129,15,339
1657084080170,-19,-933,101
1657084080210,-722,-1150,100
1657084080250,-955,-895,435
1657084080290,-172,-927,-6
1657084080330,-203,-742,-496
1657084080370,-373,-410,6
1657084080410,-499,-96,284
1657084080450,-331,52,69
1657084080490,-369,-371,-216
1657084080530,-1033,-516,-136
1657084080570,-468,-743,-79
1657084080610,-162,-567,-73
1657084080650,-559,-213,-149
1657084080690,-625,-14,9
1657084080730,-376,381,-32
1657084080770,-1196,613,-50
1657084080810,-2008,-201,47
1657084080850,-2048,-996,57
1657084080890,-2048,-866,273
1657084080930,-2048,-112,562
1657084080970,-2048,531,308
1657084081010,-1829,926,203
1657084081050,-351,763,278
1657084081090,876,581,402
1657084081130,1582,565,592
1657084081170,1484,430,575
1657084081210,749,1361,711
1657084081250,-1689,2047,791
1657084081290,-2048,2047,636
1657084081330,-2048,941,149
1657084081370,-2048,288,77
1657084081410,-1705,-162,-263
1657084081450,-1192,-296,-476
1657084081490,-969,-340,-659
1657084081530,-865,-231,-533
1657084081570,-784,-229,-290
1657084081610,-2048,248,4
1657084081650,-2048,416,265
1657084081690,-2048,1108,267
1657084081730,-1889,1689,46
1657084081770,-373,1027,166
1657084081810,535,528,585
1657084081850,1242,434,725
1657084081890,1305,636,716
1657084081930,1054,764,761
1657084081970,440,1670,869
1657084082010,-2048,2047,1020
1657084082050,-2048,1562,-94
1657084082090,-2048,460,-84
1657084082130,-1743,9,-276
1657084082170,-1068,-319,-569
1657084082210,-776,-309,-708
1657084082250,-544,-326,-537
1657084082290,-633,-397,-254
1657084082330,-2048,102,-98
1657084082370,-2048,794,-141
1657084082410,-2048,1316,109
1657084082450,-1781,1563,48
1657084082490,-563,1044,363
1657084082530,361,804,643
1657084082570,1114,685,670
1657084082610,1493,449,790
1657084082650,1091,686,887
1657084082690,-259,2005,675
1657084082730,-2048,2047,38
1657084082770,-2048,1369,-692
1657084082810,-2048,869,-627
1657084082850,-1461,40,-756
1657084082890,-799,-424,-747
1657084082930,-624,-432,-611
1657084082970,-391,-265,-499
1657084083010,-745,-120,-403
1657084083050,-2048,388,-502
1657084083090,-2048,958,-523
1657084083130,-2048,1614,-365
1657084083170,-1445,1395,-155
1657084083210,-240,870,281
1657084083250,683,479,423
1657084083290,950,748,488
1657084083330,920,516,547
1657084083370,698,875,543
1657084083410,335,1719,502
1657084083450,-2048,2047,125
1657084083490,-2048,1901,-225
1657084083530,-2048,1389,-322
1657084083570,-2048,528,-513
1657084083610,-1376,158,-748
1657084083650,-912,-40,-960
1657084083690,-784,-500,-626
1657084083730,-913,-510,-460
1657084083770,-1600,114,-398
1657084083810,-2048,863,-67
1657084083850,-2048,1672,25
1657084083890,-1805,1971,-218
1657084083930,-815,1517,-465
1657084083970,-226,814,-7
1657084084010,377,408,496
1657084084050,665,429,550
1657084084090,764,533,703
1657084084130,992,867,623
1657084084170,571,2047,523
1657084084210,-2048,2047,377
1657084084250,-2048,2047,-54
1657084084290,-2048,1411,-440
1657084084330,-2048,231,-437
1657084084370,-1223,-137,-842
1657084084410,-806,-386,-1014
1657084084450,-710,-451,-678
1657084084490,-1196,-149,-479
1657084084530,-2040,650,-307
1657084084570,-2048,1389,-5
1657084084610,-2048,1767,-149
1657084084650,-1593,1736,-192
1657084084690,-715,1098,-16
1657084084730,92,704,401
1657084084770,561,686,408
1657084084810,1022,604,732
1657084084850,1192,706,787
1657084084890,1057,1099,606
1657084084930,-1609,2047,-27
1657084084970,-2048,2047,-577
1657084085010,-2048,1196,-461
1657084085050,-2048,779,-331
1657084085090,-1206,-39,-334
