timestamp,accel_X,accel_Y,accel_Z
1657202076323,-264,-12,-1009
1657202076363,-278,7,-970
1657202076403,-275,-1,-969
1657202076443,-274,-26,-1012
1657202076483,-246,-4,-996
1657202076523,-226,5,-991
1657202076563,-260,-8,-1008
1657202076603,-284,-9,-1021
1657202076643,-272,-10,-999
1657202076683,-272,5,-997
1657202076723,-247,-13,-1000
1657202076763,-245,-8,-970
1657202076803,-256,-13,-1008
1657202076843,-245,26,-945
1657202076883,-141,21,-924
1657202076923,-368,-116,-1165
1657202076963,-247,-107,-1200
1657202077003,-397,9,-1030
1657202077043,-399,48,-1045
1657202077083,-345,203,-773
1657202077123,-364,184,-757
1657202077163,-415,117,-981
1657202077203,-340,186,-925
1657202077243,-271,180,-1123
1657202077283,-228,203,-1080
1657202077323,-185,121,-1165
1657202077363,-208,29,-1001
1657202077403,-139,86,-885
1657202077443,-158,-17,-924
1657202077483,-218,-29,-877
1657202077523,-94,78,-935
1657202077563,-113,36,-1051
1657202077603,-103,84,-1050
1657202077643,-148,90,-1020
1657202077683,-96,95,-1042
1657202077723,-135,105,-1019
1657202077763,-37,120,-976
1657202077803,-52,112,-931
1657202077843,-66,46,-998
1657202077883,-277,-22,-1422
1657202077923,-158,-35,-1248
1657202077963,-325,4,-1194
1657202078003,-302,213,-876
1657202078043,-488,87,-1076
1657202078083,-472,200,-876
1657202078123,-556,243,-880
1657202078163,-463,203,-963
1657202078203,-484,319,-1011
1657202078243,-393,369,-774
1657202078283,-373,390,-802
1657202078323,-674,323,-771
1657202078363,-706,420,-882
1657202078403,-610,390,-526
1657202078443,-662,359,-518
1657202078483,-880,234,-802
1657202078523,-927,301,-723
1657202078563,-488,339,-541
1657202078603,-571,196,-339
1657202078643,-723,78,-531
1657202078683,-916,-225,-568
1657202078723,-1043,-198,-613
1657202078763,-1066,-340,-699
1657202078803,-1218,-219,-219
1657202078843,-924,0,-84
1657202078883,-896,-38,-137
1657202078923,-1057,-185,4
1657202078963,-1072,-190,-32
1657202079003,-982,-181,45
1657202079043,-888,-20,2
1657202079083,-968,-247,-85
1657202079123,-897,-218,-81
1657202079163,-887,-241,-83
1657202079203,-1097,-424,-180
1657202079243,-1007,-526,-402
1657202079283,-952,-231,-411
1657202079323,-1150,-227,-412
1657202079363,-748,-65,-440
1657202079403,-962,-64,-521
1657202079443,-810,-1,-323
1657202079483,-741,183,-513
1657202079523,-747,165,-471
1657202079563,-691,448,-308
1657202079603,-708,367,-601
1657202079643,-688,360,-415
1657202079683,-872,239,-556
1657202079723,-839,91,-517
1657202079763,-735,83,-453
1657202079803,-516,102,-401
1657202079843,-545,136,-496
1657202079883,-545,190,-524
1657202079923,-787,-7,-594
1657202079963,-787,-214,-646
1657202080003,-1069,-339,-719
1657202080043,-1041,-383,-670
1657202080083,-608,-237,-391
1657202080123,-972,-605,-615
1657202080163,-775,-492,-426
1657202080203,-1085,-898,-574
1657202080243,-635,-583,-374
1657202080283,-782,-677,-242
1657202080323,-864,-826,-294
1657202080363,-981,-843,-259
1657202080403,-1005,-952,-429
1657202080443,-839,-823,-301
1657202080483,-662,-657,-241
1657202080523,-653,-646,-202
1657202080563,-689,-720,-222
1657202080603,-774,-812,-210
1657202080643,-841,-940,-252
1657202080683,-696,-915,-317
1657202080723,-661,-916,-368
1657202080763,-519,-751,-289
1657202080803,-496,-626,-218
1657202080843,-621,-674,-250
1657202080883,-631,-647,-243
1657202080923,-664,-651,-264
1657202080963,-709,-702,-283
1657202081003,-675,-699,-242
1657202081043,-795,-879,-345
1657202081083,-726,-931,-421
1657202081123,-676,-1153,-660
1657202081163,-446,-1023,-888
1657202081203,-162,-723,-726
1657202081243,-47,-219,-490
1657202081283,-169,-108,-303
1657202081323,-379,-145,-255
1657202081363,-711,-155,-347
1657202081403,-722,-439,-583
1657202081443,-908,-547,-1178
1657202081483,-1421,-1115,-403
1657202081523,-926,-598,-645
1657202081563,-85,-945,-627
1657202081603,-272,-417,-919
1657202081643,-611,-736,-1010
1657202081683,-532,-852,-352
1657202081723,-479,-650,-535
1657202081763,-456,-596,-552
1657202081803,-486,-784,-495
1657202081843,-451,-761,-563
1657202081883,-443,-801,-578
1657202081923,-398,-737,-522
1657202081963,-463,-768,-477
1657202082003,-414,-778,-537
1657202082043,-246,-822,-609
1657202082083,-282,-900,-574
1657202082123,-360,-869,-539
1657202082163,-346,-780,-542
1657202082203,-358,-784,-558
1657202082243,-343,-822,-506
1657202082283,-369,-808,-525
1657202082323,-329,-772,-532
1657202082363,-353,-826,-513
1657202082403,-355,-800,-526
1657202082443,-357,-808,-519
1657202082483,-364,-824,-516
1657202082523,-338,-811,-503
1657202082563,-379,-815,-515
1657202082603,-373,-835,-520
1657202082643,-350,-830,-509
1657202082683,-384,-806,-520
1657202082723,-372,-831,-495
1657202082763,-384,-810,-518
1657202082803,-365,-824,-494
1657202082843,-408,-819,-512
1657202082883,-386,-810,-499
1657202082923,-394,-818,-500
1657202082963,-374,-831,-481
1657202083003,-398,-798,-506
1657202083043,-376,-831,-493
1657202083083,-396,-819,-497
1657202083123,-379,-804,-505
1657202083163,-374,-829,-492
1657202083203,-400,-805,-500
1657202083243,-392,-826,-498
1657202083283,-386,-821,-515
1657202083323,-378,-814,-503
1657202083363,-371,-820,-501
1657202083403,-383,-816,-498
1657202083443,-366,-816,-502
1657202083483,-375,-817,-506
1657202083523,-384,-808,-494
1657202083563,-393,-818,-509
1657202083603,-345,-808,-484
1657202083643,-430,-864,-480
1657202083683,-389,-801,-501
1657202083723,-363,-797,-498
1657202083763,-388,-824,-480
1657202083803,-391,-842,-476
1657202083843,-384,-808,-521
1657202083883,-372,-817,-490
1657202083923,-391,-835,-475
1657202083963,-379,-818,-490
1657202084003,-386,-814,-524
1657202084043,-369,-824,-482
1657202084083,-397,-837,-484
1657202084123,-395,-806,-502
1657202084163,-381,-808,-487
1657202084203,-413,-832,-472
1657202084243,-385,-797,-470
1657202084283,-402,-813,-487
1657202084323,-400,-819,-492
1657202084363,-398,-819,-464
1657202084403,-419,-800,-487
1657202084443,-402,-815,-476
1657202084483,-417,-818,-476
1657202084523,-406,-817,-467
1657202084563,-399,-829,-491
1657202084603,-394,-812,-487
1657202084643,-399,-823,-484
1657202084683,-387,-816,-498
1657202084723,-369,-813,-505
1657202084763,-385,-814,-499
1657202084803,-381,-834,-500
1657202084843,-286,-711,-354
1657202084883,-405,-552,-460
1657202084923,-428,-904,-554
1657202084963,-450,-839,-523
1657202085003,-350,-816,-454
1657202085043,-385,-799,-537
1657202085083,-315,-808,-516
1657202085123,-390,-818,-518
1657202085163,-391,-842,-480
1657202085203,-355,-816,-533
1657202085243,-344,-809,-528
1657202085283,-367,-824,-488
1657202085323,-402,-816,-497
1657202085363,-357,-822,-509
1657202085403,-372,-834,-501
1657202085443,-370,-819,-495
1657202085483,-389,-834,-507
1657202085523,-375,-814,-482
1657202085563,-387,-824,-478
1657202085603,-401,-830,-473
1657202085643,-416,-823,-467
1657202085683,-409,-816,-481
1657202085723,-413,-820,-453
1657202085763,-415,-817,-452
1657202085803,-400,-845,-507
1657202085843,-406,-791,-458
1657202085883,-432,-828,-492
1657202085923,-396,-884,-517
1657202085963,-447,-776,-345
1657202086003,-378,-859,-561
1657202086043,-405,-793,-460
1657202086083,-406,-822,-481
1657202086123,-409,-811,-491
1657202086163,-395,-818,-492
1657202086203,-399,-814,-494
1657202086243,-389,-811,-487
1657202086283,-400,-807,-503
1657202086323,-381,-807,-491
1657202086363,-399,-808,-505
1657202086403,-397,-815,-496
1657202086443,-400,-812,-482
1657202086483,-391,-814,-506
1657202086523,-395,-807,-494
1657202086563,-406,-817,-496
1657202086603,-394,-812,-504
1657202086643,-408,-811,-494
1657202086683,-409,-818,-494
1657202086723,-407,-811,-485
1657202086763,-410,-810,-501
1657202086803,-400,-821,-486
1657202086843,-412,-815,-494
1657202086883,-395,-808,-487
1657202086923,-409,-813,-498
1657202086963,-396,-801,-497
1657202087003,-405,-823,-494
1657202087043,-395,-801,-494
1657202087083,-399,-805,-499
1657202087123,-395,-814,-495
1657202087163,-405,-818,-494
1657202087203,-414,-820,-489
1657202087243,-406,-811,-501
1657202087283,-407,-821,-492
1657202087323,-404,-819,-499
1657202087363,-416,-819,-487
1657202087403,-407,-814,-489
1657202087443,-411,-806,-484
1657202087483,-408,-830,-476
1657202087523,-443,-789,-501
1657202087563,-436,-801,-487
1657202087603,-431,-825,-468
1657202087643,-430,-814,-470
1657202087683,-431,-816,-487
1657202087723,-418,-821,-486
1657202087763,-475,-793,-408
1657202087803,-425,-820,-495
1657202087843,-423,-813,-454
1657202087883,-414,-799,-462
1657202087923,-446,-816,-454
1657202087963,-422,-809,-470
1657202088003,-433,-806,-470
1657202088043,-438,-810,-461
1657202088083,-434,-815,-471
1657202088123,-428,-804,-466
1657202088163,-407,-794,-457
1657202088203,-430,-762,-481
1657202088243,-428,-798,-490
1657202088283,-423,-801,-472
1657202088323,-430,-819,-476
1657202088363,-407,-804,-494
1657202088403,-416,-818,-465
1657202088443,-441,-811,-481
1657202088483,-413,-808,-491
1657202088523,-422,-806,-484
1657202088563,-439,-808,-471
1657202088603,-437,-809,-480
1657202088643,-424,-800,-487
1657202088683,-404,-825,-488
1657202088723,-416,-809,-500
1657202088763,-442,-812,-475
1657202088803,-434,-816,-494
1657202088843,-412,-810,-496
1657202088883,-429,-809,-524
1657202088923,-384,-799,-455
1657202088963,-416,-805,-513
1657202089003,-457,-846,-551
1657202089043,-470,-835,-571
1657202089083,-451,-961,-814
1657202089123,-957,-1018,-836
1657202089163,-863,-873,-771
1657202089203,-725,-419,-333
1657202089243,-309,-206,-284
1657202089283,-131,-176,-284
1657202089323,-152,-142,-281
1657202089363,-114,-335,-469
1657202089403,-327,-749,-686
1657202089443,-287,-524,-579
1657202089483,-474,-996,-467
1657202089523,-289,-939,-300
1657202089563,-363,-1155,-169
1657202089603,-379,-1265,-108
1657202089643,-312,-1177,-23
1657202089683,-502,-1410,-27
1657202089723,-353,-1214,-30
1657202089763,-286,-1027,82
1657202089803,-295,-936,219
1657202089843,-307,-953,121
1657202089883,-210,-922,185
1657202089923,-283,-1003,112
1657202089963,-285,-1053,111
1657202090003,-337,-1073,167
1657202090043,-386,-1115,137
1657202090083,-407,-1176,81
1657202090123,-303,-1164,123
1657202090163,-290,-1121,133
1657202090203,-270,-1024,185
1657202090243,-231,-951,225
1657202090283,-172,-932,247
1657202090323,-116,-931,246
1657202090363,-105,-972,277
1657202090403,-169,-938,324
1657202090443,-229,-839,388
1657202090483,-288,-861,375
1657202090523,-263,-878,266
1657202090563,-262,-920,233
1657202090603,-324,-959,155
1657202090643,-318,-967,173
1657202090683,-333,-949,194
1657202090723,-338,-953,187
1657202090763,-312,-962,127
1657202090803,-311,-965,82
1657202090843,-291,-972,56
1657202090883,-281,-981,68
1657202090923,-305,-995,65
1657202090963,-276,-1022,87
1657202091003,-209,-1188,128
1657202091043,-315,-1126,100
1657202091083,-353,-1072,181
1657202091123,-268,-1053,121
1657202091163,-216,-1061,82
1657202091203,-232,-989,66
1657202091243,-196,-944,122
1657202091283,-116,-947,179
1657202091323,-85,-964,190
1657202091363,-101,-923,227
1657202091403,-186,-892,270
1657202091443,-208,-898,215
1657202091483,-189,-929,120
1657202091523,-220,-974,78
1657202091563,-273,-982,77
1657202091603,-309,-999,76
1657202091643,-325,-1042,33
1657202091683,-303,-1034,52
1657202091723,-305,-1027,68
1657202091763,-303,-1013,54
1657202091803,-271,-961,72
1657202091843,-244,-961,48
1657202091883,-223,-983,60
1657202091923,-223,-1050,56
1657202091963,-235,-1062,124
1657202092003,-254,-1074,170
1657202092043,-287,-1047,173
1657202092083,-231,-1058,204
1657202092123,-260,-1031,233
1657202092163,-273,-920,254
1657202092203,-244,-913,251
1657202092243,-190,-968,197
1657202092283,-209,-1013,228
1657202092323,-265,-983,266
1657202092363,-328,-987,282
1657202092403,-318,-977,275
1657202092443,-269,-936,289
1657202092483,-223,-955,214
1657202092523,-224,-946,191
1657202092563,-216,-963,194
1657202092603,-246,-957,204
1657202092643,-245,-926,234
1657202092683,-235,-940,206
1657202092723,-233,-952,145
1657202092763,-236,-955,122
1657202092803,-241,-944,109
1657202092843,-264,-951,133
1657202092883,-278,-946,119
1657202092923,-286,-965,87
1657202092963,-274,-1020,94
1657202093003,-317,-1061,95
1657202093043,-304,-1088,95
1657202093083,-317,-1138,137
1657202093123,-352,-1170,89
1657202093163,-325,-1105,112
1657202093203,-318,-1060,115
1657202093243,-316,-977,78
1657202093283,-221,-946,117
1657202093323,-98,-1010,177
1657202093363,-76,-981,187
1657202093403,-121,-921,229
1657202093443,-150,-850,224
1657202093483,-144,-803,212
1657202093523,-103,-843,142
1657202093563,-162,-931,80
1657202093603,-223,-996,73
1657202093643,-301,-1055,80
1657202093683,-322,-1082,48
1657202093723,-317,-1029,58
1657202093763,-317,-1005,76
1657202093803,-336,-1010,46
1657202093843,-332,-1010,50
1657202093883,-302,-1008,81
1657202093923,-254,-1019,131
1657202093963,-217,-1087,167
1657202094003,-288,-1093,167
1657202094043,-293,-1076,174
1657202094083,-250,-1056,184
1657202094123,-180,-1005,199
1657202094163,-184,-911,239
1657202094203,-162,-846,251
1657202094243,-136,-888,221
1657202094283,-174,-948,199
1657202094323,-186,-985,239
1657202094363,-212,-1011,253
1657202094403,-247,-1008,275
1657202094443,-260,-983,245
1657202094483,-248,-959,219
1657202094523,-215,-945,209
1657202094563,-223,-958,172
1657202094603,-248,-976,178
1657202094643,-286,-1004,179
1657202094683,-290,-1017,225
1657202094723,-292,-1000,223
1657202094763,-263,-978,196
1657202094803,-246,-964,148
1657202094843,-249,-973,117
1657202094883,-280,-998,132
1657202094923,-265,-1019,120
1657202094963,-192,-1104,156
1657202095003,-215,-1148,192
1657202095043,-251,-1096,237
1657202095083,-253,-1069,193
1657202095123,-263,-1051,109
1657202095163,-238,-970,104
1657202095203,-151,-972,110
1657202095243,-72,-978,118
1657202095283,-42,-941,184
1657202095323,-63,-903,159
1657202095363,-106,-888,114
1657202095403,-137,-905,88
1657202095443,-135,-952,40
1657202095483,-148,-959,59
1657202095523,-209,-978,103
1657202095563,-252,-1014,84
1657202095603,-294,-1022,55
1657202095643,-294,-1032,33
1657202095683,-304,-1020,60
1657202095723,-308,-997,77
1657202095763,-293,-988,82
1657202095803,-279,-1003,58
1657202095843,-271,-1036,56
1657202095883,-195,-1112,58
1657202095923,-192,-1089,118
1657202095963,-256,-1072,88
1657202096003,-225,-1100,103
1657202096043,-238,-1050,148
1657202096083,-229,-939,209
1657202096123,-200,-877,262
1657202096163,-149,-907,219
1657202096203,-165,-998,191
1657202096243,-194,-1027,262
1657202096283,-229,-990,333
1657202096323,-239,-951,346
1657202096363,-208,-912,292
1657202096403,-177,-925,207
1657202096443,-174,-971,152
1657202096483,-193,-1017,103
1657202096523,-234,-1038,93
1657202096563,-280,-1029,147
1657202096603,-276,-1001,144
1657202096643,-232,-969,116
1657202096683,-208,-947,112
1657202096723,-240,-984,84
1657202096763,-272,-1009,117
1657202096803,-304,-1005,129
1657202096843,-258,-1061,129
1657202096883,-283,-1122,145
1657202096923,-300,-1106,163
1657202096963,-284,-1097,149
1657202097003,-271,-1082,138
1657202097043,-241,-1045,114
1657202097083,-185,-999,153
1657202097123,-107,-995,132
1657202097163,-57,-978,167
1657202097203,-49,-944,147
1657202097243,-78,-907,126
1657202097283,-78,-889,72
1657202097323,-102,-916,53
1657202097363,-110,-952,28
1657202097403,-125,-960,102
1657202097443,-179,-966,137
1657202097483,-240,-962,133
1657202097523,-256,-967,120
1657202097563,-279,-990,85
1657202097603,-292,-1013,76
1657202097643,-328,-1027,87
1657202097683,-351,-1030,72
1657202097723,-340,-1031,67
1657202097763,-302,-1047,46
1657202097803,-276,-1073,66
1657202097843,-234,-1089,91
1657202097883,-191,-1094,113
1657202097923,-179,-1130,97
1657202097963,-229,-1152,81
1657202098003,-216,-1054,130
1657202098043,-177,-955,140
1657202098083,-133,-900,166
1657202098123,-147,-866,179
1657202098163,-167,-925,156
1657202098203,-166,-982,188
1657202098243,-208,-1005,247
1657202098283,-245,-1033,321
1657202098323,-318,-1002,334
1657202098363,-336,-957,372
1657202098403,-231,-953,253
1657202098443,-211,-973,164
1657202098483,-192,-966,149
1657202098523,-224,-984,143
1657202098563,-245,-1004,171
1657202098603,-270,-1017,170
1657202098643,-275,-1016,150
1657202098683,-228,-992,128
1657202098723,-210,-976,76
1657202098763,-188,-967,62
1657202098803,-147,-916,89
1657202098843,-154,-902,83
1657202098883,-171,-956,85
1657202098923,-199,-1034,104
1657202098963,-288,-1076,115
1657202099003,-290,-1046,152
1657202099043,-250,-1086,108
1657202099083,-220,-1105,79
1657202099123,-241,-1103,131
1657202099163,-313,-1032,155
1657202099203,-311,-983,120
1657202099243,-256,-992,90
1657202099283,-147,-1068,72
1657202099323,-108,-1068,126
1657202099363,-100,-986,198
1657202099403,-132,-871,250
1657202099443,-132,-853,134
1657202099483,-125,-896,90
1657202099523,-158,-956,37
1657202099563,-199,-988,51
1657202099603,-242,-1007,109
1657202099643,-265,-1022,97
1657202099683,-234,-1009,122
1657202099723,-242,-993,87
1657202099763,-230,-968,76
1657202099803,-236,-985,61
1657202099843,-250,-991,46
1657202099883,-268,-992,66
1657202099923,-268,-983,78
1657202099963,-244,-1002,82
1657202100003,-262,-1050,54
1657202100043,-225,-1095,99
1657202100083,-281,-1129,84
1657202100123,-306,-1085,90
1657202100163,-231,-1053,141
1657202100203,-232,-996,172
1657202100243,-223,-914,229
1657202100283,-166,-890,221
1657202100323,-150,-976,161
1657202100363,-194,-1020,186
1657202100403,-271,-991,264
1657202100443,-278,-925,326
1657202100483,-254,-919,314
1657202100523,-192,-951,200
1657202100563,-193,-978,166
1657202100603,-225,-979,180
1657202100643,-248,-983,185
1657202100683,-240,-977,170
1657202100723,-226,-977,141
1657202100763,-234,-986,122
1657202100803,-238,-990,109
1657202100843,-249,-993,97
1657202100883,-247,-998,64
1657202100923,-230,-1011,69
1657202100963,-219,-1063,104
1657202101003,-297,-1052,158
1657202101043,-286,-1011,192
1657202101083,-259,-1053,137
1657202101123,-259,-1093,82
1657202101163,-248,-1046,142
1657202101203,-283,-1001,128
1657202101243,-214,-984,124
1657202101283,-95,-1033,165
1657202101323,-107,-1021,150
1657202101363,-116,-960,200
1657202101403,-154,-880,189
1657202101443,-133,-897,81
1657202101483,-152,-954,35
1657202101523,-180,-994,27
1657202101563,-228,-998,70
1657202101603,-245,-997,90
1657202101643,-247,-983,43
1657202101683,-235,-962,54
1657202101723,-223,-994,50
1657202101763,-252,-1000,61
1657202101803,-263,-996,57
1657202101843,-264,-988,45
1657202101883,-229,-978,47
1657202101923,-239,-956,50
1657202101963,-208,-971,76
1657202102003,-185,-1046,109
1657202102043,-236,-1072,98
1657202102083,-275,-1119,79
1657202102123,-234,-1167,122
1657202102163,-261,-1085,193
1657202102203,-245,-918,267
1657202102243,-198,-874,220
1657202102283,-168,-960,147
1657202102323,-190,-1042,155
1657202102363,-251,-1027,221
1657202102403,-281,-953,339
1657202102443,-227,-872,381
1657202102483,-195,-896,248
1657202102523,-195,-965,158
1657202102563,-234,-1009,138
1657202102603,-277,-1010,170
1657202102643,-266,-984,189
1657202102683,-217,-973,180
1657202102723,-217,-976,163
1657202102763,-236,-983,154
1657202102803,-256,-980,163
1657202102843,-278,-990,157
1657202102883,-284,-977,158
1657202102923,-288,-992,142
1657202102963,-296,-1010,126
1657202103003,-300,-1010,143
1657202103043,-344,-1070,154
1657202103083,-374,-1118,158
1657202103123,-442,-1205,148
1657202103163,-596,-1396,89
1657202103203,-517,-1339,131
1657202103243,-596,-1534,-3
1657202103283,-599,-1445,39
1657202103323,-529,-1217,-246
1657202103363,-478,-896,-499
1657202103403,-227,-502,-626
1657202103443,-331,-153,-654
1657202103483,-60,49,-506
1657202103523,-149,230,-392
1657202103563,-193,-4,-465
1657202103603,-499,-69,-415
1657202103643,-305,-21,-713
1657202103683,-459,98,-875
1657202103723,-396,90,-950
1657202103763,-343,89,-1027
1657202103803,-366,145,-801
1657202103843,-316,121,-824
1657202103883,-184,-115,-995
1657202103923,-433,9,-1230
1657202103963,-263,-76,-1710
1657202104003,-333,214,-917
1657202104043,-170,276,-599
1657202104083,-301,202,-901
1657202104123,-467,237,-767
1657202104163,-499,152,-641
1657202104203,-266,151,-574
1657202104243,-223,-33,-528
1657202104283,0,-44,-471
1657202104323,274,-383,-552
1657202104363,-446,-768,-658
1657202104403,-382,-523,-334
1657202104443,-519,-1124,-67
1657202104483,-651,-1305,-135
1657202104523,-633,-1329,247
1657202104563,-712,-1403,330
1657202104603,-619,-1310,307
1657202104643,-545,-1336,230
1657202104683,-485,-1270,80
1657202104723,-373,-1165,33
1657202104763,-292,-1042,42
1657202104803,-260,-966,120
1657202104843,-238,-922,204
1657202104883,-231,-930,230
1657202104923,-202,-985,214
1657202104963,-125,-1129,219
1657202105003,-141,-1145,231
1657202105043,-248,-1148,263
1657202105083,-205,-1146,204
1657202105123,-179,-1076,93
1657202105163,-126,-975,105
1657202105203,-88,-909,119
1657202105243,-21,-907,52
1657202105283,11,-917,41
1657202105323,-7,-891,97
1657202105363,-98,-904,85
1657202105403,-133,-922,96
1657202105443,-125,-931,119
1657202105483,-187,-951,96
1657202105523,-236,-969,141
1657202105563,-315,-996,109
1657202105603,-360,-1015,93
1657202105643,-389,-1023,73
1657202105683,-377,-1070,27
1657202105723,-292,-1227,48
1657202105763,-385,-1233,82
1657202105803,-473,-1227,59
1657202105843,-382,-1081,68
1657202105883,-299,-954,111
1657202105923,-213,-956,117
1657202105963,-103,-886,194
1657202106003,-172,-885,294
1657202106043,-294,-926,283
1657202106083,-299,-921,276
1657202106123,-273,-947,208
1657202106163,-235,-963,156
1657202106203,-228,-966,113
1657202106243,-259,-960,81
1657202106283,-264,-967,97
1657202106323,-246,-980,94
1657202106363,-257,-979,71
1657202106403,-252,-1006,10
1657202106443,-251,-1021,-2
1657202106483,-239,-1101,55
1657202106523,-251,-1114,113
1657202106563,-313,-1104,139
1657202106603,-317,-1079,49
1657202106643,-312,-1026,32
1657202106683,-271,-983,11
1657202106723,-188,-980,76
1657202106763,-153,-1018,110
1657202106803,-163,-1010,131
1657202106843,-184,-932,196
1657202106883,-170,-868,169
1657202106923,-135,-832,95
1657202106963,-134,-825,81
1657202107003,-194,-876,14
1657202107043,-214,-947,-11
1657202107083,-245,-1029,21
1657202107123,-301,-1053,52
1657202107163,-312,-1003,89
1657202107203,-301,-992,53
1657202107243,-248,-1045,41
1657202107283,-226,-1146,62
1657202107323,-276,-1206,115
1657202107363,-330,-1234,119
1657202107403,-438,-1158,78
1657202107443,-395,-988,113
1657202107483,-211,-894,171
1657202107523,-90,-862,190
1657202107563,-103,-884,172
1657202107603,-222,-899,243
1657202107643,-294,-919,321
1657202107683,-303,-937,349
1657202107723,-268,-936,292
1657202107763,-208,-950,241
1657202107803,-215,-982,189
1657202107843,-252,-984,144
1657202107883,-265,-980,132
1657202107923,-246,-1003,89
1657202107963,-230,-1033,71
1657202108003,-219,-1031,33
1657202108043,-148,-1110,77
1657202108083,-142,-1201,144
1657202108123,-292,-1103,177
1657202108163,-332,-1019,174
1657202108203,-263,-988,11
1657202108243,-144,-1012,22
1657202108283,-64,-1046,111
1657202108323,-168,-1050,167
1657202108363,-162,-964,252
1657202108403,-153,-841,277
1657202108443,-95,-791,185
1657202108483,-73,-806,137
1657202108523,-125,-864,120
1657202108563,-167,-898,135
1657202108603,-222,-978,113
1657202108643,-273,-1067,75
1657202108683,-316,-1085,59
1657202108723,-347,-1094,75
1657202108763,-325,-1051,72
1657202108803,-260,-1065,24
1657202108843,-155,-1162,87
1657202108883,-241,-1197,204
1657202108923,-345,-1172,244
1657202108963,-401,-1063,174
1657202109003,-277,-977,143
1657202109043,-146,-937,173
1657202109083,-62,-962,178
1657202109123,-116,-987,224
1657202109163,-205,-951,290
1657202109203,-157,-912,343
1657202109243,-121,-884,316
1657202109283,-112,-898,219
1657202109323,-114,-919,196
1657202109363,-165,-938,175
1657202109403,-210,-964,143
1657202109443,-233,-1000,123
1657202109483,-242,-1036,88
1657202109523,-279,-1040,94
1657202109563,-255,-1092,106
1657202109603,-176,-1210,126
1657202109643,-264,-1179,230
1657202109683,-338,-1095,184
1657202109723,-302,-1032,113
1657202109763,-130,-1009,151
1657202109803,-54,-952,142
1657202109843,-74,-924,103
1657202109883,-64,-891,94
1657202109923,-85,-898,55
1657202109963,-92,-885,47
1657202110003,-113,-908,73
1657202110043,-176,-917,81
1657202110083,-130,-1020,80
1657202110123,-172,-1066,114
1657202110163,-262,-1024,119
1657202110203,-233,-980,100
1657202110243,-209,-957,37
1657202110283,-195,-955,37
1657202110323,-140,-1038,119
1657202110363,-154,-1161,196
1657202110403,-337,-1277,159
1657202110443,-468,-1226,80
1657202110483,-443,-1013,28
1657202110523,-206,-895,102
1657202110563,-59,-881,141
1657202110603,-140,-984,73
1657202110643,-277,-996,172
1657202110683,-316,-959,321
1657202110723,-220,-969,387
1657202110763,-252,-977,275
1657202110803,-198,-995,256
1657202110843,-193,-963,221
1657202110883,-157,-936,178
1657202110923,-152,-924,159
1657202110963,-129,-944,89
1657202111003,-143,-969,74
1657202111043,-158,-1046,22
1657202111083,-105,-1216,34
1657202111123,-202,-1241,132
1657202111163,-348,-1168,124
1657202111203,-352,-1072,145
1657202111243,-150,-1046,130
1657202111283,-81,-972,151
1657202111323,-119,-929,166
1657202111363,-150,-884,125
1657202111403,-143,-854,94
1657202111443,-117,-857,99
1657202111483,-139,-905,90
1657202111523,-158,-978,93
1657202111563,-182,-1034,65
1657202111603,-210,-993,86
1657202111643,-188,-969,41
1657202111683,-190,-962,9
1657202111723,-180,-986,46
1657202111763,-221,-1062,70
1657202111803,-196,-1138,147
1657202111843,-274,-1180,168
1657202111883,-331,-1187,152
1657202111923,-361,-1116,83
1657202111963,-277,-983,48
1657202112003,-159,-900,99
1657202112043,-45,-919,138
1657202112083,-119,-989,176
1657202112123,-199,-990,262
1657202112163,-248,-930,369
1657202112203,-176,-871,398
1657202112243,-138,-902,286
1657202112283,-153,-983,169
1657202112323,-181,-1025,124
1657202112363,-200,-1028,113
1657202112403,-207,-1018,192
1657202112443,-201,-988,127
1657202112483,-164,-970,99
1657202112523,-158,-1000,84
1657202112563,-134,-1228,104
1657202112603,-241,-1230,160
1657202112643,-338,-1132,206
1657202112683,-199,-1078,159
1657202112723,-34,-1069,118
1657202112763,43,-967,182
1657202112803,30,-865,247
1657202112843,-5,-832,203
1657202112883,-71,-857,92
1657202112923,-109,-893,54
1657202112963,-134,-960,59
1657202113003,-193,-1003,104
1657202113043,-235,-1015,137
1657202113083,-266,-996,113
1657202113123,-253,-990,60
1657202113163,-234,-1006,22
1657202113203,-256,-1011,23
1657202113243,-256,-1015,66
1657202113283,-254,-1040,50
1657202113323,-191,-1129,75
1657202113363,-213,-1169,102
1657202113403,-266,-1179,150
1657202113443,-291,-1129,104
1657202113483,-293,-1010,50
1657202113523,-183,-895,131
1657202113563,-98,-836,178
1657202113603,-116,-890,219
1657202113643,-212,-1001,267
1657202113683,-274,-1032,287
1657202113723,-351,-1019,312
1657202113763,-261,-965,318
1657202113803,-209,-919,254
1657202113843,-165,-923,179
1657202113883,-149,-918,132
1657202113923,-161,-924,161
1657202113963,-173,-945,155
1657202114003,-187,-975,130
1657202114043,-198,-987,117
1657202114083,-229,-1038,46
1657202114123,-184,-1216,-7
1657202114163,-125,-1315,103
1657202114203,-318,-1197,161
1657202114243,-447,-1048,130
1657202114283,-251,-1028,45
1657202114323,-91,-1012,57
1657202114363,-61,-933,157
1657202114403,-111,-896,175
1657202114443,-89,-873,160
1657202114483,-117,-870,152
1657202114523,-140,-906,101
1657202114563,-131,-942,81
1657202114603,-157,-959,79
1657202114643,-184,-948,74
1657202114683,-205,-952,45
1657202114723,-214,-948,36
1657202114763,-215,-980,76
1657202114803,-251,-1020,81
1657202114843,-270,-1082,88
1657202114883,-269,-1178,83
1657202114923,-260,-1206,113
1657202114963,-311,-1199,109
1657202115003,-368,-1147,64
1657202115043,-292,-1061,50
1657202115083,-249,-952,102
1657202115123,-177,-861,149
1657202115163,-111,-875,173
1657202115203,-93,-959,207
1657202115243,-206,-978,264
1657202115283,-272,-952,344
1657202115323,-288,-969,368
1657202115363,-224,-978,294
1657202115403,-185,-966,235
1657202115443,-143,-953,215
1657202115483,-160,-984,154
1657202115523,-203,-986,120
1657202115563,-205,-980,125
1657202115603,-190,-989,84
1657202115643,-186,-1009,48
1657202115683,-116,-1176,49
1657202115723,-109,-1213,161
1657202115763,-252,-1129,257
1657202115803,-288,-1061,147
1657202115843,-205,-1025,38
1657202115883,-98,-1007,74
1657202115923,-66,-944,123
1657202115963,-96,-879,147
1657202116003,-94,-853,151
1657202116043,-135,-851,103
1657202116083,-172,-844,60
1657202116123,-179,-869,38
1657202116163,-95,-1028,104
1657202116203,-228,-1066,156
1657202116243,-383,-1042,107
1657202116283,-303,-1011,83
1657202116323,-269,-991,8
1657202116363,-245,-960,62
1657202116403,-245,-943,98
1657202116443,-175,-1080,108
1657202116483,-201,-1247,70
1657202116523,-342,-1340,66
1657202116563,-465,-1233,101
1657202116603,-433,-1041,98
1657202116643,-233,-931,184
1657202116683,-97,-879,250
1657202116723,-136,-914,195
1657202116763,-203,-940,282
1657202116803,-247,-930,366
1657202116843,-309,-971,348
1657202116883,-247,-980,363
1657202116923,-194,-947,330
1657202116963,-166,-945,184
1657202117003,-118,-929,131
1657202117043,-155,-928,129
1657202117083,-165,-956,119
1657202117123,-189,-952,103
1657202117163,-189,-955,59
1657202117203,-161,-1027,-4
1657202117243,-70,-1093,60
1657202117283,-125,-1221,226
1657202117323,-205,-1315,221
1657202117363,-379,-1241,201
1657202117403,-238,-1104,211
1657202117443,-41,-965,151
1657202117483,10,-880,118
1657202117523,-24,-831,133
1657202117563,-60,-852,235
1657202117603,-147,-872,229
1657202117643,-143,-867,211
1657202117683,-204,-961,232
1657202117723,-191,-942,197
1657202117763,-218,-989,171
1657202117803,-225,-1024,107
1657202117843,-261,-1040,76
1657202117883,-229,-1008,165
1657202117923,-216,-969,183
1657202117963,-207,-973,199
1657202118003,-185,-986,206
1657202118043,-131,-1071,268
1657202118083,-144,-1138,305
1657202118123,-282,-1174,260
1657202118163,-354,-1141,250
1657202118203,-336,-1013,173
1657202118243,-226,-887,216
1657202118283,-105,-922,293
1657202118323,-92,-974,289
1657202118363,-235,-949,339
1657202118403,-315,-991,376
1657202118443,-325,-986,362
1657202118483,-227,-921,357
1657202118523,-183,-918,285
1657202118563,-132,-913,191
1657202118603,-151,-895,156
1657202118643,-188,-919,176
1657202118683,-189,-944,178
1657202118723,-210,-994,172
1657202118763,-219,-1073,104
1657202118803,-159,-1158,25
1657202118843,-77,-1251,119
1657202118883,-236,-1162,171
1657202118923,-322,-1017,198
1657202118963,-321,-977,113
1657202119003,-185,-973,140
1657202119043,-155,-986,229
1657202119083,-220,-982,210
1657202119123,-208,-921,227
1657202119163,-177,-867,181
1657202119203,-153,-869,134
1657202119243,-145,-914,78
1657202119283,-160,-952,158
1657202119323,-234,-971,157
1657202119363,-281,-1007,-3
1657202119403,-182,-988,20
1657202119443,-189,-956,63
1657202119483,-231,-942,80
1657202119523,-231,-994,82
1657202119563,-177,-1124,117
1657202119603,-234,-1234,157
1657202119643,-360,-1232,274
1657202119683,-480,-1115,167
1657202119723,-377,-935,137
1657202119763,-195,-848,137
1657202119803,-38,-825,162
1657202119843,-79,-896,184
1657202119883,-281,-983,200
1657202119923,-438,-1054,230
1657202119963,-458,-1041,267
1657202120003,-312,-1023,249
1657202120043,-255,-966,234
1657202120083,-212,-925,206
1657202120123,-188,-900,210
1657202120163,-197,-908,196
1657202120203,-196,-952,181
1657202120243,-210,-977,166
1657202120283,-174,-1057,118
1657202120323,-71,-1237,107
1657202120363,-152,-1237,211
1657202120403,-299,-1115,153
1657202120443,-325,-988,104
1657202120483,-138,-993,88
1657202120523,-21,-1001,94
1657202120563,-122,-957,187
1657202120603,-174,-914,170
1657202120643,-137,-882,158
1657202120683,-125,-869,160
1657202120723,-152,-894,129
1657202120763,-183,-931,143
1657202120803,-207,-941,142
1657202120843,-212,-956,169
1657202120883,-252,-991,135
1657202120923,-295,-1005,102
1657202120963,-311,-977,102
1657202121003,-274,-991,96
1657202121043,-184,-1125,134
1657202121083,-295,-1239,132
1657202121123,-413,-1259,130
1657202121163,-472,-1137,70
1657202121203,-277,-910,119
1657202121243,-197,-792,273
1657202121283,-258,-918,333
1657202121323,-388,-1030,286
1657202121363,-416,-1049,315
1657202121403,-279,-1022,364
1657202121443,-205,-965,356
1657202121483,-128,-926,322
1657202121523,-83,-890,307
1657202121563,-48,-855,284
1657202121603,-93,-906,186
1657202121643,-113,-955,109
1657202121683,-153,-978,121
1657202121723,-179,-998,126
1657202121763,-181,-1070,86
1657202121803,-130,-1213,109
1657202121843,-221,-1223,149
1657202121883,-335,-1145,148
1657202121923,-387,-1026,55
1657202121963,-225,-1005,77
1657202122003,-139,-1002,178
1657202122043,-130,-964,265
1657202122083,-153,-917,318
1657202122123,-153,-890,283
1657202122163,-127,-869,234
1657202122203,-118,-890,197
1657202122243,-132,-961,12
1657202122283,-267,-995,78
1657202122323,-261,-966,76
1657202122363,-217,-969,-59
1657202122403,-222,-1009,-14
1657202122443,-253,-984,-26
1657202122483,-238,-976,-35
1657202122523,-218,-954,7
1657202122563,-161,-1080,36
1657202122603,-185,-1154,71
1657202122643,-289,-1204,109
1657202122683,-399,-1145,64
1657202122723,-384,-970,43
1657202122763,-210,-883,126
1657202122803,-81,-895,162
1657202122843,-83,-981,163
1657202122883,-244,-1047,188
1657202122923,-321,-1027,295
1657202122963,-329,-997,384
1657202123003,-231,-981,311
1657202123043,-177,-966,229
1657202123083,-129,-956,165
1657202123123,-170,-934,117
1657202123163,-200,-917,137
1657202123203,-222,-918,146
1657202123243,-218,-953,123
1657202123283,-238,-1000,69
1657202123323,-241,-1055,44
1657202123363,-201,-1127,11
1657202123403,-104,-1288,92
1657202123443,-221,-1249,183
1657202123483,-334,-1079,174
1657202123523,-341,-966,47
1657202123563,-154,-991,59
1657202123603,-99,-1010,208
1657202123643,-174,-928,202
1657202123683,-183,-858,276
1657202123723,-164,-829,251
1657202123763,-137,-853,161
1657202123803,-157,-919,101
1657202123843,-199,-954,110
1657202123883,-217,-963,131
1657202123923,-231,-962,90
1657202123963,-198,-965,61
1657202124003,-210,-948,51
1657202124043,-237,-986,32
1657202124083,-231,-1008,83
1657202124123,-168,-1102,107
1657202124163,-191,-1172,119
1657202124203,-289,-1229,137
1657202124243,-445,-1206,57
1657202124283,-474,-1043,5
1657202124323,-235,-904,117
1657202124363,-88,-908,210
1657202124403,-118,-932,218
1657202124443,-255,-988,212
1657202124483,-497,-1102,240
1657202124523,-516,-1064,328
1657202124563,-315,-979,313
1657202124603,-232,-956,212
1657202124643,-195,-934,175
1657202124683,-188,-901,178
1657202124723,-161,-872,171
1657202124763,-136,-844,185
1657202124803,-125,-837,144
1657202124843,-139,-874,76
1657202124883,-108,-993,36
1657202124923,-39,-1203,78
1657202124963,-180,-1326,185
1657202125003,-460,-1282,87
1657202125043,-492,-1197,-39
1657202125083,-193,-1140,87
1657202125123,-113,-1039,169
1657202125163,-128,-916,217
1657202125203,-108,-823,250
1657202125243,-99,-818,252
1657202125283,-163,-912,210
1657202125323,-126,-961,75
1657202125363,-71,-978,2
1657202125403,-122,-936,54
1657202125443,-186,-930,105
1657202125483,-214,-917,144
1657202125523,-259,-937,156
1657202125563,-312,-978,163
1657202125603,-334,-1051,119
1657202125643,-333,-1135,72
1657202125683,-256,-1162,49
1657202125723,-246,-1204,59
1657202125763,-282,-1248,130
1657202125803,-419,-1174,46
1657202125843,-360,-1021,118
1657202125883,-227,-946,195
1657202125923,-118,-954,223
1657202125963,-73,-952,319
1657202126003,-207,-988,401
1657202126043,-248,-1005,380
1657202126083,-178,-926,419
1657202126123,-162,-906,428
1657202126163,-163,-867,385
1657202126203,-129,-839,249
1657202126243,-110,-834,104
1657202126283,-132,-863,80
1657202126323,-168,-933,89
1657202126363,-214,-1010,68
1657202126403,-261,-1141,53
1657202126443,-226,-1337,19
1657202126483,-213,-1376,176
1657202126523,-347,-1223,216
1657202126563,-375,-1103,146
1657202126603,-193,-1042,88
1657202126643,-46,-977,157
1657202126683,-5,-853,211
1657202126723,-37,-806,266
1657202126763,-67,-796,283
1657202126803,-129,-844,240
1657202126843,-121,-916,180
1657202126883,-173,-945,150
1657202126923,-222,-952,151
1657202126963,-240,-968,84
1657202127003,-248,-968,39
1657202127043,-266,-996,0
1657202127083,-276,-1034,13
1657202127123,-306,-1045,60
1657202127163,-257,-1126,79
1657202127203,-201,-1210,131
1657202127243,-330,-1263,108
1657202127283,-435,-1207,77
1657202127323,-369,-1022,97
1657202127363,-170,-942,166
1657202127403,-64,-917,220
1657202127443,-157,-962,232
1657202127483,-274,-972,288
1657202127523,-292,-944,370
1657202127563,-230,-908,352
1657202127603,-195,-906,302
1657202127643,-184,-939,261
1657202127683,-219,-957,179
1657202127723,-230,-925,161
1657202127763,-209,-882,186
1657202127803,-194,-908,184
1657202127843,-210,-966,147
1657202127883,-215,-1009,81
1657202127923,-157,-1143,15
1657202127963,-80,-1273,0
1657202128003,-224,-1168,172
1657202128043,-322,-1082,205
1657202128083,-276,-1089,46
1657202128123,-106,-1103,130
1657202128163,-29,-989,264
1657202128203,-122,-917,267
1657202128243,-113,-886,237
1657202128283,-103,-875,200
1657202128323,-142,-918,157
1657202128363,-130,-975,207
1657202128403,-172,-1002,196
1657202128443,-179,-956,205
1657202128483,-178,-955,164
1657202128523,-177,-941,73
1657202128563,-231,-966,35
1657202128603,-287,-967,0
1657202128643,-306,-1032,6
1657202128683,-290,-1071,-54
1657202128723,-207,-1177,-32
1657202128763,-297,-1310,-116
1657202128803,-450,-1241,-79
1657202128843,-542,-1132,109
1657202128883,-481,-1067,237
1657202128923,-326,-1020,485
1657202128963,-178,-1063,577
1657202129003,-173,-979,589
1657202129043,-152,-969,494
1657202129083,-136,-885,411
1657202129123,-124,-819,362
1657202129163,-124,-803,341
1657202129203,-191,-826,211
1657202129243,-217,-856,153
1657202129283,-273,-866,174
1657202129323,-276,-911,147
1657202129363,-280,-955,118
1657202129403,-265,-999,148
1657202129443,-253,-1010,134
1657202129483,-214,-1155,159
1657202129523,-207,-1245,217
1657202129563,-317,-1229,227
1657202129603,-453,-1118,160
1657202129643,-448,-976,118
1657202129683,-221,-985,154
1657202129723,-135,-947,192
1657202129763,-173,-948,263
1657202129803,-179,-867,300
1657202129843,-149,-852,349
1657202129883,-115,-876,275
1657202129923,-126,-948,185
1657202129963,-179,-984,177
1657202130003,-244,-986,212
1657202130043,-232,-964,194
1657202130083,-234,-954,178
1657202130123,-229,-972,146
1657202130163,-227,-981,92
1657202130203,-230,-1059,35
1657202130243,-152,-1194,53
1657202130283,-252,-1323,183
1657202130323,-459,-1282,83
1657202130363,-421,-1029,166
1657202130403,-219,-869,204
1657202130443,-147,-814,306
1657202130483,-176,-897,427
1657202130523,-270,-925,453
1657202130563,-292,-965,437
1657202130603,-357,-1001,405
1657202130643,-312,-986,375
1657202130683,-215,-944,322
1657202130723,-188,-943,233
1657202130763,-223,-935,175
1657202130803,-231,-896,184
1657202130843,-198,-891,191
1657202130883,-199,-892,176
1657202130923,-196,-913,166
1657202130963,-179,-955,123
1657202131003,-156,-1039,84
1657202131043,-122,-1188,80
1657202131083,-237,-1197,161
1657202131123,-323,-1156,209
1657202131163,-380,-1044,118
1657202131203,-215,-986,184
1657202131243,-123,-965,245
1657202131283,-163,-967,266
1657202131323,-175,-924,289
1657202131363,-165,-854,290
1657202131403,-157,-861,257
1657202131443,-203,-933,163
1657202131483,-205,-987,152
1657202131523,-254,-1023,122
1657202131563,-247,-1003,135
1657202131603,-221,-986,134
1657202131643,-239,-963,98
1657202131683,-244,-936,92
1657202131723,-214,-982,82
1657202131763,-156,-1144,161
1657202131803,-256,-1220,187
1657202131843,-451,-1251,159
1657202131883,-498,-1116,142
1657202131923,-322,-941,178
1657202131963,-160,-878,240
1657202132003,-48,-871,283
1657202132043,-206,-900,327
1657202132083,-292,-918,373
1657202132123,-324,-958,359
1657202132163,-277,-991,313
1657202132203,-225,-987,277
1657202132243,-209,-987,211
1657202132283,-203,-974,176
1657202132323,-193,-945,182
1657202132363,-151,-893,224
1657202132403,-123,-861,211
1657202132443,-137,-898,174
1657202132483,-169,-964,118
1657202132523,-198,-1025,82
1657202132563,-190,-1094,52
1657202132603,-113,-1170,204
1657202132643,-253,-1133,246
1657202132683,-390,-1132,141
1657202132723,-437,-1113,91
1657202132763,-259,-1088,167
1657202132803,-241,-1034,257
1657202132843,-266,-970,232
1657202132883,-227,-888,254
1657202132923,-210,-849,223
1657202132963,-178,-857,199
1657202133003,-99,-903,103
1657202133043,-68,-960,75
1657202133083,-205,-1001,125
1657202133123,-213,-987,162
1657202133163,-196,-946,149
1657202133203,-173,-904,125
1657202133243,-178,-904,110
1657202133283,-222,-942,56
1657202133323,-126,-1055,156
1657202133363,-134,-1193,245
1657202133403,-312,-1256,277
1657202133443,-449,-1169,247
1657202133483,-376,-988,171
1657202133523,-221,-911,149
1657202133563,-89,-949,155
1657202133603,-74,-1012,162
1657202133643,-190,-991,255
1657202133683,-248,-973,357
1657202133723,-316,-967,406
1657202133763,-265,-942,365
1657202133803,-176,-912,279
1657202133843,-126,-893,265
1657202133883,-137,-921,213
1657202133923,-165,-931,202
1657202133963,-186,-928,217
1657202134003,-188,-947,199
1657202134043,-219,-985,174
1657202134083,-228,-1042,91
1657202134123,-134,-1192,94
1657202134163,-172,-1286,113
1657202134203,-317,-1124,132
1657202134243,-373,-984,103
1657202134283,-196,-1026,94
1657202134323,-142,-1078,125
1657202134363,-199,-1038,191
1657202134403,-171,-965,230
1657202134443,-135,-887,242
1657202134483,-67,-844,203
1657202134523,-36,-844,187
1657202134563,-62,-865,183
1657202134603,-111,-910,183
1657202134643,-139,-964,157
1657202134683,-172,-998,120
1657202134723,-208,-1008,83
1657202134763,-230,-992,55
1657202134803,-244,-979,69
1657202134843,-232,-996,89
1657202134883,-197,-1072,115
1657202134923,-241,-1187,132
1657202134963,-316,-1264,220
1657202135003,-448,-1278,212
1657202135043,-479,-1099,145
1657202135083,-259,-946,176
1657202135123,-86,-925,209
1657202135163,-50,-1003,208
1657202135203,-162,-1036,265
1657202135243,-156,-984,384
1657202135283,-126,-937,448
1657202135323,-92,-903,439
1657202135363,-86,-915,348
1657202135403,-71,-903,291
1657202135443,-113,-892,236
1657202135483,-149,-881,213
1657202135523,-173,-890,204
1657202135563,-204,-919,155
1657202135603,-229,-974,112
1657202135643,-236,-1015,58
1657202135683,-255,-1026,68
1657202135723,-215,-1217,83
1657202135763,-209,-1313,200
1657202135803,-300,-1265,276
1657202135843,-269,-1135,170
1657202135883,-67,-1065,109
1657202135923,24,-1012,179
1657202135963,-59,-967,244
1657202136003,-43,-915,257
1657202136043,25,-870,233
1657202136083,27,-871,221
1657202136123,-7,-907,215
1657202136163,-47,-946,186
1657202136203,-88,-945,104
1657202136243,-108,-954,56
1657202136283,-148,-959,23
1657202136323,-178,-952,16
1657202136363,-195,-975,30
1657202136403,-221,-996,56
1657202136443,-234,-979,75
1657202136483,-216,-972,105
1657202136523,-205,-1022,75
1657202136563,-131,-1132,154
1657202136603,-209,-1219,217
1657202136643,-331,-1201,195
1657202136683,-285,-1075,214
1657202136723,-197,-966,175
1657202136763,-113,-930,157
1657202136803,-87,-964,163
1657202136843,-138,-1052,194
1657202136883,-202,-1008,287
1657202136923,-206,-941,355
1657202136963,-146,-882,329
1657202137003,-131,-890,218
1657202137043,-161,-930,174
1657202137083,-206,-945,178
1657202137123,-229,-948,215
1657202137163,-249,-959,202
1657202137203,-267,-967,186
1657202137243,-252,-984,189
1657202137283,-263,-995,167
1657202137323,-270,-1011,130
1657202137363,-265,-1029,100
1657202137403,-241,-1037,100
1657202137443,-146,-1145,142
1657202137483,-176,-1193,243
1657202137523,-322,-1098,255
1657202137563,-332,-1053,125
1657202137603,-224,-1052,40
1657202137643,-101,-1076,103
1657202137683,-96,-1033,209
1657202137723,-115,-971,266
1657202137763,-109,-887,301
1657202137803,-71,-873,229
1657202137843,-87,-869,166
1657202137883,-122,-929,123
1657202137923,-154,-980,89
1657202137963,-196,-958,100
1657202138003,-173,-934,119
1657202138043,-178,-939,103
1657202138083,-200,-950,89
1657202138123,-222,-960,91
1657202138163,-261,-998,68
1657202138203,-272,-1017,72
1657202138243,-269,-1011,101
1657202138283,-240,-995,102
1657202138323,-209,-1033,92
1657202138363,-167,-1089,162
1657202138403,-192,-1162,205
1657202138443,-284,-1178,200
1657202138483,-302,-1123,207
1657202138523,-260,-996,206
1657202138563,-182,-915,209
1657202138603,-149,-882,204
1657202138643,-138,-945,179
1657202138683,-197,-1029,203
1657202138723,-252,-1035,262
1657202138763,-245,-969,350
1657202138803,-184,-909,386
1657202138843,-164,-885,350
1657202138883,-159,-913,260
1657202138923,-166,-951,219
1657202138963,-192,-953,231
1657202139003,-218,-949,245
1657202139043,-231,-943,218
1657202139083,-226,-960,188
1657202139123,-220,-980,159
1657202139163,-230,-1003,174
1657202139203,-264,-1018,175
1657202139243,-286,-1011,157
1657202139283,-287,-997,151
1657202139323,-245,-1055,144
1657202139363,-201,-1134,180
1657202139403,-308,-1134,250
1657202139443,-372,-1076,213
1657202139483,-277,-1076,158
1657202139523,-147,-1099,152
1657202139563,-122,-1062,200
1657202139603,-119,-1022,174
1657202139643,-50,-887,310
1657202139683,-46,-869,257
1657202139723,-30,-909,165
1657202139763,-83,-953,132
1657202139803,-104,-955,146
1657202139843,-144,-938,139
1657202139883,-134,-915,147
1657202139923,-141,-895,122
1657202139963,-175,-948,92
1657202140003,-210,-981,73
1657202140043,-259,-1024,80
1657202140083,-298,-1051,76
1657202140123,-299,-1060,93
1657202140163,-298,-1037,83
1657202140203,-221,-1046,90
1657202140243,-199,-1119,146
1657202140283,-254,-1144,175
1657202140323,-313,-1115,140
1657202140363,-355,-1017,106
1657202140403,-204,-889,168
1657202140443,-112,-911,177
1657202140483,-129,-1052,125
1657202140523,-246,-1071,211
1657202140563,-302,-1032,336
1657202140603,-273,-959,420
1657202140643,-170,-886,380
1657202140683,-113,-883,311
1657202140723,-131,-909,239
1657202140763,-148,-904,255
1657202140803,-203,-919,251
1657202140843,-224,-939,211
1657202140883,-232,-948,164
1657202140923,-234,-969,110
1657202140963,-227,-1005,61
1657202141003,-250,-1032,50
1657202141043,-264,-1096,64
1657202141083,-203,-1222,116
1657202141123,-286,-1292,164
1657202141163,-375,-1128,206
1657202141203,-340,-1010,155
1657202141243,-176,-1032,55
1657202141283,-38,-998,134
1657202141323,-27,-936,241
1657202141363,-90,-890,307
1657202141403,-97,-860,286
1657202141443,-104,-860,203
1657202141483,-99,-908,164
1657202141523,-128,-972,145
1657202141563,-183,-964,132
1657202141603,-189,-929,127
1657202141643,-160,-922,97
1657202141683,-167,-964,65
1657202141723,-222,-989,40
1657202141763,-243,-1003,58
1657202141803,-219,-1011,107
1657202141843,-253,-1028,81
1657202141883,-227,-999,63
1657202141923,-142,-1034,184
1657202141963,-172,-1142,225
1657202142003,-268,-1204,268
1657202142043,-300,-1210,287
1657202142083,-317,-1039,301
1657202142123,-199,-921,314
1657202142163,-109,-902,270
1657202142203,-93,-969,252
1657202142243,-208,-973,315
1657202142283,-228,-931,378
1657202142323,-168,-895,378
1657202142363,-124,-886,321
1657202142403,-116,-905,280
1657202142443,-122,-936,289
1657202142483,-144,-942,348
1657202142523,-157,-926,387
1657202142563,-182,-897,349
1657202142603,-192,-893,265
1657202142643,-218,-909,189
1657202142683,-171,-991,203
1657202142723,-272,-1049,207
1657202142763,-361,-1104,160
1657202142803,-385,-1139,172
1657202142843,-379,-1109,147
1657202142883,-267,-1190,175
1657202142923,-197,-1165,273
1657202142963,-293,-1035,339
1657202143003,-284,-970,228
1657202143043,-128,-990,111
1657202143083,50,-1018,174
1657202143123,66,-1007,297
1657202143163,-35,-980,344
1657202143203,8,-907,372
1657202143243,19,-882,274
1657202143283,-29,-910,178
1657202143323,-84,-933,102
1657202143363,-125,-935,118
1657202143403,-140,-910,148
1657202143443,-137,-909,179
1657202143483,-179,-961,133
1657202143523,-216,-983,119
1657202143563,-234,-993,120
1657202143603,-248,-1026,110
1657202143643,-285,-1111,72
1657202143683,-297,-1104,29
1657202143723,-199,-1018,127
1657202143763,-76,-1110,218
1657202143803,-100,-1146,272
1657202143843,-266,-1147,257
1657202143883,-228,-1024,237
1657202143923,-133,-873,190
1657202143963,-54,-814,230
1657202144003,3,-934,258
1657202144043,-152,-1086,260
1657202144083,-189,-1097,383
1657202144123,-201,-975,463
1657202144163,-115,-875,400
1657202144203,-95,-884,286
1657202144243,-112,-923,198
1657202144283,-143,-957,217
1657202144323,-151,-954,271
1657202144363,-131,-934,317
1657202144403,-161,-951,258
1657202144443,-216,-972,197
1657202144483,-225,-999,176
1657202144523,-229,-1101,87
1657202144563,-236,-1100,30
1657202144603,-206,-1049,127
1657202144643,-149,-1099,152
1657202144683,-154,-1190,208
1657202144723,-252,-1139,269
1657202144763,-286,-1038,228
1657202144803,-134,-979,94
1657202144843,29,-977,142
1657202144883,74,-984,260
1657202144923,2,-992,298
1657202144963,18,-925,309
1657202145003,6,-890,249
1657202145043,-35,-905,164
1657202145083,-93,-965,80
1657202145123,-132,-989,99
1657202145163,-165,-975,121
1657202145203,-172,-949,120
1657202145243,-157,-958,102
1657202145283,-181,-974,100
1657202145323,-220,-981,76
1657202145363,-232,-993,90
1657202145403,-234,-1016,101
1657202145443,-250,-1010,107
1657202145483,-236,-1002,128
1657202145523,-225,-995,98
1657202145563,-170,-1049,162
1657202145603,-155,-1173,195
1657202145643,-196,-1215,232
1657202145683,-311,-1146,145
1657202145723,-253,-998,134
1657202145763,-98,-864,175
1657202145803,-27,-836,208
1657202145843,-60,-945,238
1657202145883,-165,-1053,242
1657202145923,-226,-1075,323
1657202145963,-264,-980,415
1657202146003,-187,-877,414
1657202146043,-131,-882,294
1657202146083,-131,-928,198
1657202146123,-175,-968,180
1657202146163,-209,-960,240
1657202146203,-226,-976,255
1657202146243,-233,-978,232
1657202146283,-226,-978,213
1657202146323,-228,-993,180
1657202146363,-241,-1001,150
1657202146403,-260,-989,133
1657202146443,-275,-981,121
1657202146483,-260,-951,126
1657202146523,-257,-976,116
1657202146563,-189,-1135,110
1657202146603,-171,-1280,209
1657202146643,-367,-1211,257
1657202146683,-405,-1093,256
1657202146723,-112,-1078,153
1657202146763,54,-965,133
1657202146803,-8,-900,236
1657202146843,-70,-886,259
1657202146883,-92,-890,184
1657202146923,-64,-893,179
1657202146963,-130,-914,141
1657202147003,-126,-954,135
1657202147043,-151,-1000,144
1657202147083,-186,-997,136
1657202147123,-194,-956,142
1657202147163,-185,-956,84
1657202147203,-206,-986,54
1657202147243,-247,-1007,60
1657202147283,-258,-1021,99
1657202147323,-265,-1022,102
1657202147363,-237,-1010,71
1657202147403,-200,-987,97
1657202147443,-186,-986,120
1657202147483,-158,-1022,157
1657202147523,-152,-1106,220
1657202147563,-236,-1137,202
1657202147603,-252,-1157,182
1657202147643,-250,-1090,132
1657202147683,-190,-957,175
1657202147723,-109,-908,197
1657202147763,-83,-950,217
1657202147803,-126,-1029,264
1657202147843,-164,-1048,305
1657202147883,-189,-969,357
1657202147923,-134,-901,365
1657202147963,-95,-892,278
1657202148003,-122,-910,205
1657202148043,-148,-937,198
1657202148083,-180,-950,205
1657202148123,-196,-958,223
1657202148163,-209,-976,189
1657202148203,-218,-1014,154
1657202148243,-246,-1031,151
1657202148283,-253,-1037,162
1657202148323,-260,-1022,140
1657202148363,-256,-989,153
1657202148403,-255,-968,143
1657202148443,-250,-947,113
1657202148483,-257,-952,40
1657202148523,-211,-1028,92
1657202148563,-205,-1152,178
1657202148603,-247,-1238,247
1657202148643,-302,-1136,274
1657202148683,-102,-1082,182
1657202148723,8,-1035,162
1657202148763,-14,-992,207
1657202148803,5,-962,226
1657202148843,-34,-970,210
1657202148883,-85,-984,197
1657202148923,-80,-922,186
1657202148963,-63,-911,124
1657202149003,-70,-914,66
1657202149043,-114,-877,87
1657202149083,-124,-880,108
1657202149123,-154,-911,99
1657202149163,-194,-972,91
1657202149203,-231,-1003,108
1657202149243,-252,-1052,116
1657202149283,-276,-1070,94
1657202149323,-271,-1063,85
1657202149363,-242,-1025,92
1657202149403,-203,-1031,109
1657202149443,-168,-1107,150
1657202149483,-245,-1155,131
1657202149523,-272,-1148,135
1657202149563,-307,-1101,68
1657202149603,-211,-1058,74
1657202149643,-143,-1023,121
1657202149683,-84,-959,216
1657202149723,-42,-951,318
1657202149763,-112,-993,303
1657202149803,-218,-980,323
1657202149843,-267,-900,338
1657202149883,-166,-827,287
1657202149923,-196,-844,213
1657202149963,-201,-882,137
1657202150003,-220,-909,145
1657202150043,-268,-942,154
1657202150083,-293,-981,152
1657202150123,-286,-1014,156
1657202150163,-321,-1034,137
1657202150203,-337,-1095,89
1657202150243,-260,-1312,0
1657202150283,-223,-1306,113
1657202150323,-245,-1184,265
1657202150363,-187,-1078,269
1657202150403,-173,-974,89
1657202150443,-50,-908,71
1657202150483,59,-912,132
1657202150523,36,-932,175
1657202150563,-42,-932,213
1657202150603,-86,-921,159
1657202150643,-77,-907,115
1657202150683,-112,-891,128
1657202150723,-185,-920,70
1657202150763,-206,-944,80
1657202150803,-197,-1006,89
1657202150843,-291,-1058,84
1657202150883,-340,-1019,87
1657202150923,-281,-964,150
1657202150963,-284,-996,122
1657202151003,-296,-1003,85
1657202151043,-300,-1001,93
1657202151083,-270,-1019,76
1657202151123,-237,-1098,97
1657202151163,-217,-1177,142
1657202151203,-297,-1248,167
1657202151243,-396,-1192,69
1657202151283,-278,-1072,78
1657202151323,-141,-944,94
1657202151363,-136,-911,178
1657202151403,-139,-927,195
1657202151443,-102,-993,269
1657202151483,-110,-1047,340
1657202151523,-185,-1046,426
1657202151563,-233,-956,461
1657202151603,-167,-882,396
1657202151643,-124,-834,292
1657202151683,-150,-862,197
1657202151723,-166,-900,174
1657202151763,-251,-972,180
1657202151803,-323,-1016,203
1657202151843,-335,-1009,214
1657202151883,-312,-985,162
1657202151923,-296,-961,109
1657202151963,-276,-955,50
1657202152003,-292,-942,45
1657202152043,-288,-960,74
1657202152083,-272,-1022,82
1657202152123,-165,-1152,149
1657202152163,-225,-1231,247
1657202152203,-389,-1109,261
1657202152243,-399,-1035,227
1657202152283,-176,-1029,109
1657202152323,-78,-1009,141
1657202152363,-113,-987,232
1657202152403,-107,-945,281
1657202152443,-87,-899,297
1657202152483,-72,-893,244
1657202152523,-74,-910,193
1657202152563,-103,-947,145
1657202152603,-131,-980,99
1657202152643,-157,-967,137
1657202152683,-176,-948,106
1657202152723,-187,-950,89
1657202152763,-216,-950,83
1657202152803,-245,-949,91
1657202152843,-280,-965,53
1657202152883,-285,-997,77
1657202152923,-318,-992,133
1657202152963,-297,-1038,142
1657202153003,-176,-1205,206
1657202153043,-281,-1330,237
1657202153083,-367,-1264,275
1657202153123,-376,-1019,302
1657202153163,-194,-899,274
1657202153203,-79,-863,249
1657202153243,-60,-860,227
1657202153283,-149,-914,275
1657202153323,-194,-930,339
1657202153363,-208,-920,391
1657202153403,-190,-927,335
1657202153443,-176,-943,277
1657202153483,-191,-953,278
1657202153523,-241,-968,270
1657202153563,-285,-953,275
1657202153603,-262,-944,263
1657202153643,-259,-942,218
1657202153683,-260,-944,177
1657202153723,-289,-962,168
1657202153763,-327,-990,162
1657202153803,-330,-1006,163
1657202153843,-327,-994,176
1657202153883,-297,-974,180
1657202153923,-288,-973,165
1657202153963,-244,-1088,160
1657202154003,-203,-1170,226
1657202154043,-312,-1141,261
1657202154083,-337,-1014,244
1657202154123,-289,-977,138
1657202154163,-204,-970,53
1657202154203,-123,-973,161
1657202154243,-127,-987,221
1657202154283,-118,-975,237
1657202154323,-112,-903,268
1657202154363,-108,-884,221
1657202154403,-80,-893,176
1657202154443,-128,-914,126
1657202154483,-139,-944,116
1657202154523,-141,-968,121
1657202154563,-182,-983,123
1657202154603,-199,-1007,140
1657202154643,-219,-1052,133
1657202154683,-204,-1084,238
1657202154723,-67,-1025,291
1657202154763,-18,-864,337
1657202154803,28,-811,359
1657202154843,-2,-1019,257
1657202154883,-125,-1243,205
1657202154923,-387,-1345,160
1657202154963,-649,-1307,6
1657202155003,-589,-1106,6
1657202155043,-346,-1016,29
1657202155083,-192,-1021,109
1657202155123,-109,-1047,207
1657202155163,-145,-1041,376
1657202155203,-149,-1032,516
1657202155243,-170,-927,597
1657202155283,-151,-896,547
1657202155323,-167,-926,454
1657202155363,-212,-952,344
1657202155403,-268,-974,273
1657202155443,-349,-971,253
1657202155483,-363,-971,156
1657202155523,-294,-933,111
1657202155563,-263,-893,84
1657202155603,-265,-858,64
1657202155643,-262,-829,68
1657202155683,-261,-801,73
1657202155723,-223,-807,2
1657202155763,-215,-895,58
1657202155803,-121,-1067,119
1657202155843,-164,-1267,274
1657202155883,-490,-1200,296
1657202155923,-685,-1091,296
1657202155963,-386,-1036,355
1657202156003,-260,-992,329
1657202156043,-187,-938,335
1657202156083,-163,-886,395
1657202156123,-199,-904,331
1657202156163,-153,-874,303
1657202156203,-183,-894,325
1657202156243,-197,-933,249
1657202156283,-237,-979,229
1657202156323,-234,-969,202
1657202156363,-218,-973,163
1657202156403,-227,-1008,113
1657202156443,-227,-981,102
1657202156483,-209,-992,130
1657202156523,-208,-1033,110
1657202156563,-172,-1053,134
1657202156603,-185,-1055,190
1657202156643,-191,-991,191
1657202156683,-121,-934,169
1657202156723,-70,-932,216
1657202156763,-88,-1090,300
1657202156803,-216,-1228,291
1657202156843,-335,-1138,264
1657202156883,-225,-956,230
1657202156923,-95,-884,211
1657202156963,-115,-886,240
1657202157003,-129,-984,256
1657202157043,-164,-1051,300
1657202157083,-180,-1101,393
1657202157123,-249,-1011,408
1657202157163,-275,-920,415
1657202157203,-259,-910,347
1657202157243,-308,-912,253
1657202157283,-330,-934,214
1657202157323,-362,-917,203
1657202157363,-398,-926,241
1657202157403,-400,-928,217
1657202157443,-462,-942,205
1657202157483,-461,-943,191
1657202157523,-406,-910,155
1657202157563,-383,-877,91
1657202157603,-368,-848,46
1657202157643,-355,-803,74
1657202157683,-349,-785,23
1657202157723,-270,-891,13
1657202157763,-237,-993,40
1657202157803,-314,-1070,89
1657202157843,-371,-1083,150
1657202157883,-372,-1105,71
1657202157923,-270,-1087,117
1657202157963,-195,-1062,207
1657202158003,-163,-1038,252
1657202158043,-187,-973,289
1657202158083,-216,-899,292
1657202158123,-196,-859,244
1657202158163,-220,-927,119
1657202158203,-221,-922,190
1657202158243,-265,-955,171
1657202158283,-290,-1002,134
1657202158323,-311,-1011,152
1657202158363,-302,-995,152
1657202158403,-310,-1005,139
1657202158443,-335,-1034,107
1657202158483,-296,-1045,78
1657202158523,-292,-1026,60
1657202158563,-258,-1014,65
1657202158603,-223,-1015,60
1657202158643,-141,-1047,60
1657202158683,-69,-1109,151
1657202158723,-176,-1119,150
1657202158763,-201,-1079,140
1657202158803,-185,-1039,213
1657202158843,-191,-977,229
1657202158883,-190,-916,240
1657202158923,-148,-926,237
1657202158963,-130,-952,239
1657202159003,-121,-982,305
1657202159043,-198,-969,362
1657202159083,-244,-911,410
1657202159123,-192,-873,366
1657202159163,-230,-894,236
1657202159203,-237,-913,217
1657202159243,-265,-976,203
1657202159283,-290,-1013,188
1657202159323,-297,-1009,245
1657202159363,-298,-1002,217
1657202159403,-323,-1032,154
1657202159443,-354,-1017,111
1657202159483,-322,-977,68
1657202159523,-275,-928,78
1657202159563,-256,-927,61
1657202159603,-244,-949,80
1657202159643,-220,-1108,118
1657202159683,-231,-1238,153
1657202159723,-347,-1172,203
1657202159763,-347,-1050,126
1657202159803,-204,-958,32
1657202159843,-86,-906,121
1657202159883,-77,-884,218
1657202159923,-155,-937,257
1657202159963,-213,-937,283
1657202160003,-229,-924,175
1657202160043,-217,-881,160
1657202160083,-216,-889,129
1657202160123,-232,-915,105
1657202160163,-243,-959,110
1657202160203,-277,-1002,64
1657202160243,-285,-1051,-2
1657202160283,-297,-1028,55
1657202160323,-283,-1022,62
1657202160363,-272,-1048,74
1657202160403,-287,-1045,53
1657202160443,-248,-1023,92
1657202160483,-205,-1074,110
1657202160523,-204,-1115,167
1657202160563,-308,-1151,139
1657202160603,-394,-1177,162
1657202160643,-381,-1176,162
1657202160683,-406,-1092,206
1657202160723,-286,-955,231
1657202160763,-166,-829,156
