timestamp,accel_X,accel_Y,accel_Z
1657205969317,-17,-186,-1010
1657205969357,20,-164,-996
1657205969397,85,-55,-748
1657205969437,-451,-368,-2048
1657205969477,-9,-332,-1091
1657205969517,-24,-353,-1192
1657205969557,-47,-202,-998
1657205969597,-95,-125,-911
1657205969637,-141,-74,-895
1657205969677,-270,-201,-1039
1657205969717,-228,-59,-894
1657205969757,-258,-233,-1010
1657205969797,-262,-164,-907
1657205969837,-198,-83,-862
1657205969877,-126,-228,-1031
1657205969917,-252,-97,-914
1657205969957,-164,-220,-1059
1657205969997,-216,-161,-1093
1657205970037,-256,-166,-1062
1657205970077,-176,-76,-1084
1657205970117,-136,-63,-980
1657205970157,-245,-124,-1016
1657205970197,-176,-116,-1082
1657205970237,-242,-105,-951
1657205970277,-255,-166,-1057
1657205970317,-292,-74,-968
1657205970357,-201,69,-989
1657205970397,-81,51,-742
1657205970437,-50,-97,-838
1657205970477,-221,-317,-1411
1657205970517,-198,-361,-1198
1657205970557,-208,-15,-705
1657205970597,-208,-153,-902
1657205970637,-81,-67,-1036
1657205970677,-79,16,-920
1657205970717,-64,-56,-1087
1657205970757,-151,11,-1001
1657205970797,-210,-47,-953
1657205970837,-318,-104,-1104
1657205970877,-440,-59,-921
1657205970917,-458,-193,-969
1657205970957,-378,-135,-978
1657205970997,-326,-86,-968
1657205971037,-290,-137,-957
1657205971077,-446,-127,-876
1657205971117,-646,-154,-676
1657205971157,-664,-79,-765
1657205971197,-401,-54,-828
1657205971237,-495,-149,-923
1657205971277,-278,-134,-939
1657205971317,-41,-329,-507
1657205971357,-313,-465,-1064
1657205971397,-305,-681,-1153
1657205971437,-165,-354,-1523
1657205971477,-52,-398,-715
1657205971517,-14,-163,-694
1657205971557,-66,-167,-803
1657205971597,-315,-235,-850
1657205971637,-491,-397,-932
1657205971677,-421,-447,-812
1657205971717,-420,-372,-1077
1657205971757,-377,-336,-740
1657205971797,-377,-414,-574
1657205971837,-434,-451,-682
1657205971877,-516,-441,-610
1657205971917,-406,-463,-533
1657205971957,-245,-469,-408
1657205971997,-320,-822,-693
1657205972037,-281,-759,-390
1657205972077,-747,-1363,-561
1657205972117,-553,-1086,-380
1657205972157,-613,-1028,-173
1657205972197,-414,-866,-86
1657205972237,-327,-721,-63
1657205972277,-286,-617,127
1657205972317,-182,-682,247
1657205972357,-258,-1087,245
1657205972397,-190,-1231,228
1657205972437,-270,-1416,265
1657205972477,-467,-1680,139
1657205972517,-535,-1434,220
1657205972557,-301,-1039,440
1657205972597,-178,-749,391
1657205972637,-161,-655,298
1657205972677,-309,-688,271
1657205972717,-452,-885,295
1657205972757,-507,-932,273
1657205972797,-517,-982,320
1657205972837,-443,-976,294
1657205972877,-387,-937,318
1657205972917,-368,-860,322
1657205972957,-324,-789,352
1657205972997,-288,-796,263
1657205973037,-279,-795,205
1657205973077,-236,-814,224
1657205973117,-228,-841,238
1657205973157,-201,-924,257
1657205973197,-176,-1016,340
1657205973237,-258,-1074,412
1657205973277,-428,-1075,440
1657205973317,-454,-1057,417
1657205973357,-324,-1074,325
1657205973397,-294,-1088,237
1657205973437,-273,-1068,208
1657205973477,-257,-983,240
1657205973517,-205,-942,307
1657205973557,-200,-929,318
1657205973597,-161,-917,322
1657205973637,-182,-922,304
1657205973677,-146,-968,266
1657205973717,-112,-1015,191
1657205973757,-10,-1100,-73
1657205973797,-112,-1017,153
1657205973837,-203,-940,362
1657205973877,-164,-951,280
1657205973917,-200,-950,255
1657205973957,-276,-1014,225
1657205973997,-345,-1066,218
1657205974037,-297,-1019,253
1657205974077,-279,-985,231
1657205974117,-263,-972,198
1657205974157,-219,-940,226
1657205974197,-183,-929,261
1657205974237,-195,-935,262
1657205974277,-205,-979,232
1657205974317,-375,-1165,132
1657205974357,-690,-1428,-28
1657205974397,-775,-1725,-309
1657205974437,-559,-1792,-577
1657205974477,-490,-1475,-521
1657205974517,-374,-836,-585
1657205974557,-44,-209,-289
1657205974597,-166,-113,-543
1657205974637,-278,60,-22
1657205974677,-193,114,-420
1657205974717,-346,67,-362
1657205974757,-558,-15,-681
1657205974797,-509,93,-917
1657205974837,-381,155,-1024
1657205974877,-473,305,-800
1657205974917,-298,266,-927
1657205974957,-238,297,-817
1657205974997,-251,275,-1021
1657205975037,-292,259,-768
1657205975077,-319,150,-1220
1657205975117,-314,148,-1785
1657205975157,51,134,-1004
1657205975197,-359,88,-717
1657205975237,-423,191,-760
1657205975277,-258,155,-644
1657205975317,-384,143,-557
1657205975357,-658,56,-602
1657205975397,-596,-99,-915
1657205975437,-783,-231,-775
1657205975477,-884,-292,-1345
1657205975517,-655,-382,-1182
1657205975557,-788,-324,-1149
1657205975597,-854,-284,-978
1657205975637,-878,-322,-873
1657205975677,-966,-357,-868
1657205975717,-1118,-270,-833
1657205975757,-1155,-252,-873
1657205975797,-1078,-63,-778
1657205975837,-1028,-69,-734
1657205975877,-710,14,-696
1657205975917,-461,263,-642
1657205975957,-255,370,-425
1657205975997,-325,596,-453
1657205976037,-313,541,-289
1657205976077,-218,732,-152
1657205976117,-149,719,-325
1657205976157,-200,649,-294
1657205976197,-383,650,-375
1657205976237,-198,650,-737
1657205976277,-366,531,-318
1657205976317,-448,840,-532
1657205976357,-502,780,-470
1657205976397,-412,717,-679
1657205976437,-312,597,-597
1657205976477,-16,687,-370
1657205976517,-8,508,-363
1657205976557,-65,604,-466
1657205976597,7,280,-444
1657205976637,-39,500,-457
1657205976677,-52,273,-256
1657205976717,-75,220,-67
1657205976757,161,232,-139
1657205976797,-71,-367,-93
1657205976837,-488,-1147,-326
1657205976877,-1114,-1481,-249
1657205976917,-1184,-1537,-248
1657205976957,-1207,-1539,73
1657205976997,-1526,-2046,-113
1657205977037,-833,-1348,104
1657205977077,-683,-1153,448
1657205977117,-699,-1177,508
1657205977157,-763,-1246,393
1657205977197,-530,-1054,320
1657205977237,-426,-1092,255
1657205977277,-288,-1059,164
1657205977317,-203,-1034,150
1657205977357,-164,-1065,194
1657205977397,-116,-1033,300
1657205977437,28,-1240,450
1657205977477,-61,-1016,441
1657205977517,-19,-855,436
1657205977557,313,-826,373
1657205977597,85,-970,450
1657205977637,-203,-907,533
1657205977677,-272,-883,429
1657205977717,-207,-837,273
1657205977757,-280,-896,248
1657205977797,-330,-980,159
1657205977837,-247,-999,106
1657205977877,-326,-972,157
1657205977917,-282,-1013,33
1657205977957,-176,-1097,34
1657205977997,-183,-1195,145
1657205978037,-204,-1262,229
1657205978077,-311,-1289,318
1657205978117,-420,-1244,443
1657205978157,-361,-1137,461
1657205978197,-126,-1003,480
1657205978237,-65,-881,498
1657205978277,-207,-860,431
1657205978317,-204,-772,359
1657205978357,-126,-726,338
1657205978397,-189,-777,263
1657205978437,-254,-787,235
1657205978477,-262,-793,267
1657205978517,-268,-845,224
1657205978557,-242,-911,207
1657205978597,-221,-918,233
1657205978637,-209,-1053,208
1657205978677,-130,-1185,184
1657205978717,-285,-1079,148
1657205978757,-412,-1074,150
1657205978797,-228,-863,-416
1657205978837,-225,-1370,237
1657205978877,-369,-832,401
1657205978917,-416,-919,279
1657205978957,-363,-917,221
1657205978997,-260,-895,130
1657205979037,-249,-916,252
1657205979077,-239,-928,266
1657205979117,-213,-996,236
1657205979157,-176,-1050,172
1657205979197,-172,-1046,168
1657205979237,-153,-1083,204
1657205979277,-128,-1194,230
1657205979317,-307,-1208,202
1657205979357,-472,-1122,176
1657205979397,-289,-1036,229
1657205979437,-139,-969,259
1657205979477,-156,-942,262
1657205979517,-260,-879,339
1657205979557,-227,-803,347
1657205979597,-185,-828,332
1657205979637,-260,-913,296
1657205979677,-278,-922,331
1657205979717,-242,-898,340
1657205979757,-232,-909,279
1657205979797,-181,-943,296
1657205979837,-118,-972,275
1657205979877,-100,-1105,241
1657205979917,-60,-1236,147
1657205979957,-215,-1145,144
1657205979997,-360,-998,122
1657205980037,-192,-985,83
1657205980077,-85,-936,178
1657205980117,-197,-866,284
1657205980157,-232,-854,267
1657205980197,-368,-907,233
1657205980237,-268,-920,184
1657205980277,-260,-951,83
1657205980317,-299,-837,138
1657205980357,-331,-868,95
1657205980397,-278,-1093,16
1657205980437,-235,-1184,208
1657205980477,-78,-1391,425
1657205980517,-338,-1458,441
1657205980557,-459,-1246,417
1657205980597,-295,-1059,391
1657205980637,-104,-902,391
1657205980677,-36,-808,218
1657205980717,-130,-764,157
1657205980757,-150,-727,234
1657205980797,-182,-766,228
1657205980837,-219,-811,229
1657205980877,-223,-830,276
1657205980917,-231,-879,262
1657205980957,-256,-955,229
1657205980997,-244,-996,234
1657205981037,-242,-1047,267
1657205981077,-178,-1194,282
1657205981117,-209,-1310,243
1657205981157,-355,-1115,297
1657205981197,-327,-1046,307
1657205981237,-182,-1034,196
1657205981277,-150,-931,231
1657205981317,-203,-837,239
1657205981357,-244,-834,204
1657205981397,-190,-794,237
1657205981437,-164,-856,199
1657205981477,-210,-841,241
1657205981517,-267,-840,245
1657205981557,-237,-935,137
1657205981597,-202,-1063,140
1657205981637,-258,-1165,86
1657205981677,-148,-1258,279
1657205981717,-257,-1302,383
1657205981757,-450,-1241,246
1657205981797,-372,-1109,232
1657205981837,-198,-936,288
1657205981877,-214,-820,254
1657205981917,-259,-837,311
1657205981957,-225,-887,361
1657205981997,-216,-901,369
1657205982037,-207,-896,398
1657205982077,-257,-913,326
1657205982117,-354,-1122,154
1657205982157,-151,-821,299
1657205982197,-120,-826,244
1657205982237,-100,-1012,133
1657205982277,-64,-1129,98
1657205982317,-204,-1199,114
1657205982357,-245,-1224,17
1657205982397,-333,-1014,122
1657205982437,-210,-900,186
1657205982477,-129,-924,131
1657205982517,-251,-824,233
1657205982557,-306,-808,244
1657205982597,-282,-853,255
1657205982637,-205,-761,267
1657205982677,-268,-949,269
1657205982717,-257,-913,268
1657205982757,-215,-956,253
1657205982797,-178,-1002,161
1657205982837,-188,-1045,168
1657205982877,-167,-1153,199
1657205982917,-207,-1214,206
1657205982957,-363,-1234,164
1657205982997,-480,-1214,113
1657205983037,-320,-1114,203
1657205983077,-222,-1044,269
1657205983117,-197,-977,302
1657205983157,-244,-886,355
1657205983197,-226,-789,434
1657205983237,-153,-782,405
1657205983277,-130,-790,374
1657205983317,-120,-827,337
1657205983357,-113,-841,312
1657205983397,-125,-928,276
1657205983437,-75,-1105,228
1657205983477,-104,-1116,244
1657205983517,-70,-1301,166
1657205983557,-216,-1232,72
1657205983597,-379,-1066,142
1657205983637,-301,-1040,144
1657205983677,-135,-1015,152
1657205983717,-209,-891,223
1657205983757,-263,-794,258
1657205983797,-247,-805,275
1657205983837,-245,-896,200
1657205983877,-272,-920,226
1657205983917,-228,-901,269
1657205983957,-202,-907,221
1657205983997,-161,-996,192
1657205984037,-165,-1076,201
1657205984077,-199,-1114,221
1657205984117,-174,-1170,254
1657205984157,-293,-1184,263
1657205984197,-375,-1156,201
1657205984237,-363,-1093,131
1657205984277,-230,-988,180
1657205984317,-143,-966,228
1657205984357,-182,-949,277
1657205984397,-185,-863,371
1657205984437,-141,-797,470
1657205984477,-149,-870,473
1657205984517,-151,-876,396
1657205984557,-93,-834,397
1657205984597,-74,-901,303
1657205984637,-68,-1041,271
1657205984677,-91,-1085,242
1657205984717,-56,-1189,235
1657205984757,-67,-1216,222
1657205984797,-334,-1086,179
1657205984837,-387,-1053,116
1657205984877,-152,-1032,108
1657205984917,-147,-944,213
1657205984957,-202,-824,296
1657205984997,-198,-776,309
1657205985037,-176,-810,253
1657205985077,-146,-866,209
1657205985117,-159,-881,271
1657205985157,-208,-940,260
1657205985197,-209,-1077,152
1657205985237,-189,-1136,105
1657205985277,-210,-1138,217
1657205985317,-207,-1163,285
1657205985357,-338,-1135,197
1657205985397,-399,-1101,87
1657205985437,-250,-1085,63
1657205985477,-153,-1067,168
1657205985517,-142,-1040,272
1657205985557,-251,-953,349
1657205985597,-269,-864,437
1657205985637,-173,-818,451
1657205985677,-117,-819,408
1657205985717,-96,-853,365
1657205985757,-67,-862,340
1657205985797,-15,-925,344
1657205985837,-69,-1024,303
1657205985877,-98,-1105,261
1657205985917,-72,-1215,205
1657205985957,-125,-1257,155
1657205985997,-280,-1129,171
1657205986037,-340,-1059,160
1657205986077,-127,-1034,110
1657205986117,-128,-910,199
1657205986157,-193,-772,227
1657205986197,-147,-725,267
1657205986237,-145,-786,230
1657205986277,-205,-851,190
1657205986317,-191,-890,199
1657205986357,-184,-966,202
1657205986397,-209,-1046,202
1657205986437,-248,-1135,226
1657205986477,-246,-1197,232
1657205986517,-194,-1228,248
1657205986557,-264,-1195,190
1657205986597,-310,-1095,121
1657205986637,-257,-1033,114
1657205986677,-150,-969,209
1657205986717,-109,-952,307
1657205986757,-167,-906,352
1657205986797,-215,-834,423
1657205986837,-176,-822,457
1657205986877,-164,-856,374
1657205986917,-135,-863,351
1657205986957,-104,-907,302
1657205986997,-114,-939,271
1657205987037,-125,-987,312
1657205987077,-105,-1055,269
1657205987117,-124,-1158,189
1657205987157,-121,-1255,165
1657205987197,-122,-1398,260
1657205987237,-214,-1120,281
1657205987277,-138,-901,351
1657205987317,9,-848,188
1657205987357,-44,-750,153
1657205987397,-104,-650,226
1657205987437,-141,-645,268
1657205987477,-131,-772,297
1657205987517,-177,-960,289
1657205987557,-279,-1074,272
1657205987597,-337,-1079,300
1657205987637,-225,-1105,228
1657205987677,-210,-1159,107
1657205987717,-164,-1197,154
1657205987757,-145,-1260,254
1657205987797,-349,-1194,209
1657205987837,-476,-1097,114
1657205987877,-236,-1043,184
1657205987917,-105,-984,293
1657205987957,-129,-948,380
1657205987997,-238,-907,407
1657205988037,-186,-857,475
1657205988077,-138,-834,512
1657205988117,-145,-843,419
1657205988157,-108,-812,390
1657205988197,-82,-827,330
1657205988237,-83,-913,261
1657205988277,-73,-1011,257
1657205988317,-37,-1139,202
1657205988357,5,-1299,173
1657205988397,-112,-1301,206
1657205988437,-301,-1096,209
1657205988477,-173,-1011,201
1657205988517,-10,-992,167
1657205988557,-126,-944,235
1657205988597,-190,-831,266
1657205988637,-243,-773,271
1657205988677,-246,-816,224
1657205988717,-246,-881,194
1657205988757,-256,-933,217
1657205988797,-290,-975,220
1657205988837,-270,-1043,190
1657205988877,-201,-1116,217
1657205988917,-230,-1155,201
1657205988957,-172,-1173,270
1657205988997,-292,-1163,215
1657205989037,-368,-1120,51
1657205989077,-271,-1083,52
1657205989117,-135,-1043,255
1657205989157,-183,-1054,316
1657205989197,-260,-954,340
1657205989237,-221,-850,422
1657205989277,-124,-795,426
1657205989317,-93,-795,375
1657205989357,-92,-809,353
1657205989397,-56,-833,334
1657205989437,-14,-904,305
1657205989477,-15,-976,278
1657205989517,-24,-1082,295
1657205989557,48,-1324,226
1657205989597,-141,-1261,238
1657205989637,-335,-1161,236
1657205989677,-51,-1135,224
1657205989717,-18,-1021,240
1657205989757,-105,-921,303
1657205989797,-150,-791,323
1657205989837,-169,-765,249
1657205989877,-104,-756,244
1657205989917,-88,-757,267
1657205989957,-114,-859,251
1657205989997,-190,-965,218
1657205990037,-232,-1108,248
1657205990077,-316,-1233,145
1657205990117,-313,-1354,199
1657205990157,-302,-1276,326
1657205990197,-408,-1166,202
1657205990237,-399,-1057,141
1657205990277,-192,-1003,231
1657205990317,-148,-1027,419
1657205990357,-303,-984,539
1657205990397,-301,-912,596
1657205990437,-198,-867,497
1657205990477,-155,-851,420
1657205990517,-105,-798,401
1657205990557,-98,-820,305
1657205990597,-124,-845,300
1657205990637,-58,-880,293
1657205990677,19,-936,262
1657205990717,-20,-1068,263
1657205990757,94,-1254,304
1657205990797,-177,-1191,319
1657205990837,-310,-1167,198
1657205990877,-119,-1092,225
1657205990917,-62,-964,287
1657205990957,-173,-875,264
1657205990997,-164,-789,280
1657205991037,-164,-790,239
1657205991077,-172,-854,187
1657205991117,-197,-890,213
1657205991157,-237,-915,270
1657205991197,-267,-989,196
1657205991237,-262,-1033,165
1657205991277,-240,-1133,111
1657205991317,-247,-1246,136
1657205991357,-277,-1320,161
1657205991397,-432,-1289,153
1657205991437,-422,-1226,150
1657205991477,-263,-1161,231
1657205991517,-168,-1073,377
1657205991557,-248,-1047,439
1657205991597,-241,-909,503
1657205991637,-131,-795,516
1657205991677,-81,-779,466
1657205991717,-91,-816,356
1657205991757,-99,-780,317
1657205991797,-103,-755,316
1657205991837,-81,-848,351
1657205991877,-8,-1019,302
1657205991917,45,-1186,170
1657205991957,46,-1343,22
1657205991997,-129,-1197,81
1657205992037,-251,-1114,95
1657205992077,-84,-1103,189
1657205992117,-155,-1017,242
1657205992157,-210,-851,312
1657205992197,-244,-813,265
1657205992237,-260,-806,187
1657205992277,-220,-834,236
1657205992317,-232,-938,215
1657205992357,-280,-973,166
1657205992397,-243,-972,194
1657205992437,-136,-1016,211
1657205992477,-104,-1106,221
1657205992517,-89,-1239,316
1657205992557,-256,-1346,337
1657205992597,-517,-1316,152
1657205992637,-454,-1102,146
1657205992677,-210,-995,265
1657205992717,-85,-949,305
1657205992757,-168,-864,352
1657205992797,-190,-777,421
1657205992837,-156,-815,425
1657205992877,-146,-818,394
1657205992917,-146,-841,421
1657205992957,-172,-903,374
1657205992997,-132,-954,361
1657205993037,-73,-1045,319
1657205993077,-44,-1129,289
1657205993117,31,-1274,288
1657205993157,36,-1226,329
1657205993197,-229,-1055,253
1657205993237,-152,-1040,158
1657205993277,-1,-992,153
1657205993317,-51,-850,197
1657205993357,-115,-730,240
1657205993397,-143,-751,194
1657205993437,-171,-800,149
1657205993477,-175,-838,229
1657205993517,-197,-914,208
1657205993557,-226,-988,231
1657205993597,-256,-1025,221
1657205993637,-178,-1087,217
1657205993677,-149,-1235,252
1657205993717,-226,-1389,252
1657205993757,-382,-1354,277
1657205993797,-502,-1236,145
1657205993837,-374,-1071,107
1657205993877,-194,-959,202
1657205993917,-19,-917,209
1657205993957,-146,-877,273
1657205993997,-253,-870,392
1657205994037,-231,-875,466
1657205994077,-186,-884,451
1657205994117,-111,-899,481
1657205994157,-60,-902,468
1657205994197,-36,-951,383
1657205994237,0,-993,299
1657205994277,30,-1074,231
1657205994317,83,-1240,131
1657205994357,-21,-1186,176
1657205994397,-252,-1000,252
1657205994437,-208,-1037,171
1657205994477,-101,-1019,153
1657205994517,-159,-905,228
1657205994557,-196,-827,261
1657205994597,-240,-805,265
1657205994637,-246,-826,220
1657205994677,-225,-871,224
1657205994717,-210,-965,205
1657205994757,-221,-953,201
1657205994797,-230,-1029,177
1657205994837,-201,-1160,105
1657205994877,-185,-1259,161
1657205994917,-221,-1286,296
1657205994957,-402,-1227,226
1657205994997,-458,-1109,130
1657205995037,-244,-1038,154
1657205995077,-111,-994,241
1657205995117,-101,-931,279
1657205995157,-176,-878,323
1657205995197,-158,-789,381
1657205995237,-123,-781,396
1657205995277,-118,-804,388
1657205995317,-120,-828,422
1657205995357,-127,-915,337
1657205995397,-92,-1026,279
1657205995437,-108,-1098,249
1657205995477,-64,-1133,200
1657205995517,-57,-1190,305
1657205995557,-297,-1106,158
1657205995597,-199,-1144,33
1657205995637,-21,-1115,251
1657205995677,-130,-1018,302
1657205995717,-206,-820,322
1657205995757,-218,-772,283
1657205995797,-186,-793,158
1657205995837,-145,-789,200
1657205995877,-118,-823,233
1657205995917,-155,-879,241
1657205995957,-215,-998,174
1657205995997,-237,-1135,178
1657205996037,-282,-1396,168
1657205996077,-364,-1476,272
1657205996117,-642,-1304,231
1657205996157,-458,-1113,180
1657205996197,-169,-1037,259
1657205996237,-37,-969,297
1657205996277,-165,-933,360
1657205996317,-176,-834,478
1657205996357,-125,-817,555
1657205996397,-94,-845,452
1657205996437,-56,-835,390
1657205996477,-15,-819,447
1657205996517,-70,-888,358
1657205996557,-48,-971,323
1657205996597,-26,-1041,271
1657205996637,33,-1208,249
1657205996677,85,-1293,282
1657205996717,-242,-1187,247
1657205996757,-293,-1126,257
1657205996797,-166,-1081,239
1657205996837,-178,-938,253
1657205996877,-265,-851,252
1657205996917,-274,-822,198
1657205996957,-252,-835,207
1657205996997,-217,-870,201
1657205997037,-221,-842,268
1657205997077,-258,-843,230
1657205997117,-214,-941,220
1657205997157,-186,-1134,182
1657205997197,-224,-1247,195
1657205997237,-200,-1303,321
1657205997277,-331,-1278,293
1657205997317,-488,-1161,157
1657205997357,-282,-1046,217
1657205997397,-85,-971,294
1657205997437,-125,-970,232
1657205997477,-190,-846,321
1657205997517,-185,-809,435
1657205997557,-130,-822,392
1657205997597,-117,-843,402
1657205997637,-102,-876,372
1657205997677,-90,-894,347
1657205997717,-73,-984,339
1657205997757,-14,-1020,285
1657205997797,15,-1217,244
1657205997837,23,-1284,148
1657205997877,-195,-1074,228
1657205997917,-275,-1009,244
1657205997957,-68,-1026,130
1657205997997,-137,-940,151
1657205998037,-213,-814,212
1657205998077,-255,-817,188
1657205998117,-252,-854,179
1657205998157,-241,-886,226
1657205998197,-235,-948,240
1657205998237,-232,-977,226
1657205998277,-252,-1025,182
1657205998317,-168,-1087,177
1657205998357,-163,-1233,150
1657205998397,-169,-1295,253
1657205998437,-329,-1222,307
1657205998477,-465,-1142,107
1657205998517,-302,-1057,36
1657205998557,-127,-1018,144
1657205998597,-124,-999,237
1657205998637,-237,-930,333
1657205998677,-262,-851,450
1657205998717,-175,-827,454
1657205998757,-139,-844,407
1657205998797,-118,-861,389
1657205998837,-103,-879,370
1657205998877,-89,-935,365
1657205998917,-19,-1071,301
1657205998957,41,-1145,217
1657205998997,63,-1258,219
1657205999037,-106,-1096,258
1657205999077,-273,-1040,172
1657205999117,-57,-1020,146
1657205999157,-72,-960,176
1657205999197,-177,-869,199
1657205999237,-205,-840,186
1657205999277,-241,-857,155
1657205999317,-209,-867,211
1657205999357,-223,-919,220
1657205999397,-237,-917,235
1657205999437,-252,-966,196
1657205999477,-195,-1105,175
1657205999517,-227,-1263,171
1657205999557,-228,-1321,319
1657205999597,-400,-1232,272
1657205999637,-478,-1129,121
1657205999677,-245,-1044,168
1657205999717,-105,-986,211
1657205999757,-113,-916,232
1657205999797,-165,-851,305
1657205999837,-157,-824,349
1657205999877,-138,-859,386
1657205999917,-159,-871,360
1657205999957,-120,-847,408
1657205999997,-100,-915,392
1657206000037,-66,-1016,315
1657206000077,0,-1108,270
1657206000117,66,-1318,259
1657206000157,-14,-1194,306
1657206000197,-295,-990,304
1657206000237,-101,-1036,140
1657206000277,3,-980,128
1657206000317,-146,-868,158
1657206000357,-176,-810,177
1657206000397,-203,-822,141
1657206000437,-201,-832,178
1657206000477,-178,-864,235
1657206000517,-218,-914,247
1657206000557,-248,-969,226
1657206000597,-202,-1084,192
1657206000637,-185,-1226,196
1657206000677,-226,-1332,283
1657206000717,-398,-1302,248
1657206000757,-499,-1141,92
1657206000797,-284,-1029,95
1657206000837,-141,-1030,158
1657206000877,-137,-987,182
1657206000917,-191,-902,326
1657206000957,-175,-823,401
1657206000997,-131,-823,432
1657206001037,-105,-848,400
1657206001077,-90,-856,430
1657206001117,-63,-931,410
1657206001157,-46,-976,358
1657206001197,-2,-1039,329
1657206001237,61,-1254,256
1657206001277,-14,-1185,262
1657206001317,-297,-1052,281
1657206001357,-169,-1138,122
1657206001397,-38,-1033,147
1657206001437,-99,-854,217
1657206001477,-117,-772,215
1657206001517,-141,-774,171
1657206001557,-152,-813,149
1657206001597,-133,-811,257
1657206001637,-134,-853,275
1657206001677,-180,-885,250
1657206001717,-154,-1012,218
1657206001757,-187,-1230,173
1657206001797,-250,-1436,260
1657206001837,-463,-1453,287
1657206001877,-687,-1314,117
1657206001917,-414,-1163,83
1657206001957,-189,-1057,214
1657206001997,-127,-974,269
1657206002037,-196,-866,374
1657206002077,-143,-772,437
1657206002117,-105,-775,454
1657206002157,-111,-840,390
1657206002197,-110,-837,413
1657206002237,-56,-890,457
1657206002277,-88,-932,431
1657206002317,10,-982,389
1657206002357,77,-1217,310
1657206002397,137,-1280,142
1657206002437,-263,-1236,147
1657206002477,-245,-1148,232
1657206002517,9,-1022,251
1657206002557,-128,-924,183
1657206002597,-150,-820,173
1657206002637,-185,-783,127
1657206002677,-173,-773,101
1657206002717,-154,-818,178
1657206002757,-165,-862,233
1657206002797,-228,-919,248
1657206002837,-227,-981,228
1657206002877,-229,-1150,193
1657206002917,-233,-1355,120
1657206002957,-269,-1461,244
1657206002997,-528,-1350,165
1657206003037,-518,-1147,56
1657206003077,-222,-1011,158
1657206003117,-82,-935,197
1657206003157,-123,-872,249
1657206003197,-151,-809,349
1657206003237,-151,-839,405
1657206003277,-155,-920,388
1657206003317,-191,-905,471
1657206003357,-150,-888,472
1657206003397,-98,-950,415
1657206003437,-49,-1047,341
1657206003477,-1,-1114,277
1657206003517,96,-1272,204
1657206003557,28,-1160,216
1657206003597,-242,-980,304
1657206003637,-100,-1045,175
1657206003677,-54,-998,134
1657206003717,-139,-834,235
1657206003757,-186,-810,192
1657206003797,-226,-843,131
1657206003837,-254,-857,186
1657206003877,-255,-887,203
1657206003917,-246,-934,225
1657206003957,-258,-1021,187
1657206003997,-218,-1096,162
1657206004037,-198,-1121,200
1657206004077,-153,-1175,256
1657206004117,-225,-1203,248
1657206004157,-395,-1160,131
1657206004197,-410,-1116,45
1657206004237,-168,-1091,159
1657206004277,-112,-1041,242
1657206004317,-220,-963,342
1657206004357,-264,-866,426
1657206004397,-200,-802,447
1657206004437,-145,-858,381
1657206004477,-136,-879,326
1657206004517,-68,-911,361
1657206004557,-34,-967,347
1657206004597,-15,-1037,343
1657206004637,-35,-1083,304
1657206004677,44,-1251,220
1657206004717,31,-1137,224
1657206004757,-273,-995,203
1657206004797,-124,-1091,106
1657206004837,6,-1057,113
1657206004877,-140,-886,208
1657206004917,-163,-790,262
1657206004957,-165,-771,249
1657206004997,-161,-802,223
1657206005037,-155,-817,255
1657206005077,-171,-871,256
1657206005117,-204,-942,187
1657206005157,-224,-1082,87
1657206005197,-209,-1254,122
1657206005237,-220,-1381,250
1657206005277,-407,-1321,246
1657206005317,-539,-1227,58
1657206005357,-332,-1076,22
1657206005397,-198,-1026,165
1657206005437,-259,-1047,256
1657206005477,-291,-999,307
1657206005517,-280,-899,417
1657206005557,-181,-855,453
1657206005597,-132,-840,456
1657206005637,-81,-833,472
1657206005677,-27,-835,464
1657206005717,7,-858,438
1657206005757,-1,-909,356
1657206005797,38,-1014,291
1657206005837,116,-1293,177
1657206005877,-94,-1265,125
1657206005917,-293,-1139,228
1657206005957,-178,-1135,237
1657206005997,-121,-1076,128
1657206006037,-137,-861,158
1657206006077,-159,-776,208
1657206006117,-204,-790,169
1657206006157,-170,-832,251
1657206006197,-207,-924,295
1657206006237,-251,-950,269
1657206006277,-297,-992,210
1657206006317,-271,-1112,194
1657206006357,-239,-1203,203
1657206006397,-262,-1211,335
1657206006437,-372,-1200,299
1657206006477,-467,-1167,134
1657206006517,-374,-1088,72
1657206006557,-223,-1053,202
1657206006597,-156,-1036,290
1657206006637,-239,-1005,361
1657206006677,-273,-889,460
1657206006717,-196,-854,528
1657206006757,-183,-863,432
1657206006797,-141,-808,456
1657206006837,-73,-816,436
1657206006877,-35,-958,408
1657206006917,21,-1041,344
1657206006957,47,-1159,310
1657206006997,91,-1260,255
1657206007037,137,-1062,182
1657206007077,-189,-1046,166
1657206007117,31,-1032,220
1657206007157,110,-984,106
1657206007197,-75,-900,198
1657206007237,-68,-850,174
1657206007277,-69,-842,124
1657206007317,-44,-882,194
1657206007357,-67,-945,226
1657206007397,-119,-1031,227
1657206007437,-153,-1097,179
1657206007477,-135,-1159,143
1657206007517,-121,-1245,135
1657206007557,-111,-1287,165
1657206007597,-275,-1282,79
1657206007637,-331,-1171,58
1657206007677,-233,-1147,20
1657206007717,-163,-1165,156
1657206007757,-189,-1186,288
1657206007797,-297,-1099,410
1657206007837,-283,-1020,486
1657206007877,-170,-954,470
1657206007917,-109,-864,469
1657206007957,-77,-808,457
1657206007997,-64,-797,434
1657206008037,-31,-829,406
1657206008077,43,-896,369
1657206008117,65,-989,276
1657206008157,161,-1168,220
1657206008197,103,-1134,272
1657206008237,-223,-1097,288
1657206008277,-188,-1179,212
1657206008317,-47,-1170,187
1657206008357,-170,-970,233
1657206008397,-183,-889,283
1657206008437,-183,-819,250
1657206008477,-163,-826,288
1657206008517,-142,-851,279
1657206008557,-187,-908,293
1657206008597,-265,-970,244
1657206008637,-314,-1059,168
1657206008677,-265,-1199,149
1657206008717,-310,-1330,130
1657206008757,-273,-1368,274
1657206008797,-507,-1293,146
1657206008837,-505,-1151,47
1657206008877,-219,-1043,224
1657206008917,-80,-1043,329
1657206008957,-234,-1052,343
1657206008997,-267,-998,440
1657206009037,-224,-993,522
1657206009077,-180,-982,466
1657206009117,-144,-891,475
1657206009157,-72,-827,504
1657206009197,-37,-798,455
1657206009237,-83,-880,412
1657206009277,-3,-909,344
1657206009317,169,-1113,282
1657206009357,119,-1114,173
1657206009397,-78,-1202,161
1657206009437,-44,-1251,33
1657206009477,51,-1114,157
1657206009517,-62,-939,283
1657206009557,-142,-848,337
1657206009597,-236,-851,304
1657206009637,-282,-871,330
1657206009677,-301,-927,320
1657206009717,-347,-965,340
1657206009757,-412,-986,307
1657206009797,-424,-1114,200
1657206009837,-372,-1276,128
1657206009877,-331,-1418,260
1657206009917,-455,-1333,354
1657206009957,-588,-1244,154
1657206009997,-331,-1188,165
1657206010037,-136,-1176,287
1657206010077,-142,-1045,356
1657206010117,-215,-955,465
1657206010157,-171,-888,509
1657206010197,-94,-864,473
1657206010237,-86,-832,418
1657206010277,-77,-808,407
1657206010317,-64,-826,403
1657206010357,-56,-897,402
1657206010397,-30,-972,411
1657206010437,63,-1131,397
1657206010477,162,-1251,342
1657206010517,-126,-1164,221
1657206010557,-117,-1190,207
1657206010597,-32,-1123,213
1657206010637,-107,-962,210
1657206010677,-169,-869,177
1657206010717,-150,-823,169
1657206010757,-142,-821,199
1657206010797,-168,-866,261
1657206010837,-189,-905,350
1657206010877,-252,-964,376
1657206010917,-291,-1038,260
1657206010957,-324,-1092,195
1657206010997,-315,-1217,28
1657206011037,-267,-1325,81
1657206011077,-387,-1381,177
1657206011117,-578,-1325,131
1657206011157,-508,-1198,115
1657206011197,-245,-1144,244
1657206011237,-100,-1058,325
1657206011277,-150,-978,361
1657206011317,-218,-948,405
1657206011357,-139,-918,475
1657206011397,-135,-948,462
1657206011437,-153,-946,456
1657206011477,-87,-953,510
1657206011517,-50,-964,476
1657206011557,17,-955,485
1657206011597,80,-998,445
1657206011637,249,-1102,237
1657206011677,10,-1027,192
1657206011717,-15,-1052,159
1657206011757,64,-1067,235
1657206011797,-12,-946,284
1657206011837,-155,-868,293
1657206011877,-238,-929,240
1657206011917,-276,-988,171
1657206011957,-318,-1106,141
1657206011997,-363,-1182,165
1657206012037,-397,-1143,195
1657206012077,-384,-1139,106
1657206012117,-286,-1178,78
1657206012157,-221,-1237,126
1657206012197,-225,-1301,301
1657206012237,-395,-1281,239
1657206012277,-430,-1223,113
1657206012317,-214,-1200,112
1657206012357,-79,-1093,325
1657206012397,-65,-947,503
1657206012437,-179,-834,585
1657206012477,-118,-849,538
1657206012517,-84,-875,477
1657206012557,-91,-863,401
1657206012597,-87,-871,393
1657206012637,-73,-828,402
1657206012677,-8,-848,410
1657206012717,59,-907,355
1657206012757,76,-1021,257
1657206012797,139,-1269,157
1657206012837,-117,-1227,272
1657206012877,-359,-1192,269
1657206012917,-250,-1227,158
1657206012957,-169,-1056,240
1657206012997,-219,-885,287
1657206013037,-264,-835,255
1657206013077,-253,-861,189
1657206013117,-184,-859,243
1657206013157,-231,-899,284
1657206013197,-242,-909,281
1657206013237,-242,-925,278
1657206013277,-214,-981,246
1657206013317,-190,-1123,230
1657206013357,-154,-1360,262
1657206013397,-376,-1332,298
1657206013437,-587,-1230,193
1657206013477,-429,-1102,146
1657206013517,-190,-1060,240
1657206013557,-120,-973,295
1657206013597,-205,-871,369
1657206013637,-203,-847,426
1657206013677,-163,-833,413
1657206013717,-148,-837,432
1657206013757,-157,-862,425
1657206013797,-147,-918,443
1657206013837,-96,-1001,437
1657206013877,-16,-1060,429
1657206013917,76,-1235,380
1657206013957,78,-1171,304
1657206013997,-179,-941,321
1657206014037,-135,-970,182
1657206014077,28,-979,130
1657206014117,-92,-870,175
1657206014157,-141,-832,157
1657206014197,-188,-846,150
1657206014237,-215,-870,163
1657206014277,-203,-903,245
1657206014317,-240,-953,248
1657206014357,-277,-1006,228
1657206014397,-302,-1125,151
1657206014437,-279,-1262,99
1657206014477,-281,-1362,252
1657206014517,-378,-1322,267
1657206014557,-486,-1255,125
1657206014597,-294,-1126,148
1657206014637,-150,-1082,253
1657206014677,-160,-977,306
1657206014717,-217,-917,328
1657206014757,-189,-867,385
1657206014797,-158,-849,413
1657206014837,-131,-877,379
1657206014877,-120,-889,412
1657206014917,-93,-901,429
1657206014957,-62,-912,433
1657206014997,1,-936,412
1657206015037,71,-1006,332
1657206015077,113,-1214,198
1657206015117,51,-1175,234
1657206015157,-173,-1034,322
1657206015197,-201,-1068,295
1657206015237,-116,-1075,201
1657206015277,-172,-943,251
1657206015317,-223,-869,237
1657206015357,-266,-838,260
1657206015397,-283,-870,211
1657206015437,-259,-918,169
1657206015477,-268,-1017,153
1657206015517,-301,-1032,187
1657206015557,-208,-1053,200
1657206015597,-179,-1177,108
1657206015637,-151,-1252,191
1657206015677,-159,-1255,312
1657206015717,-383,-1207,197
1657206015757,-406,-1144,34
1657206015797,-207,-1129,128
1657206015837,-108,-1089,254
1657206015877,-206,-1050,369
1657206015917,-251,-949,446
1657206015957,-210,-869,500
1657206015997,-148,-857,436
1657206016037,-131,-831,402
1657206016077,-105,-853,397
1657206016117,-72,-863,392
1657206016157,-11,-919,378
1657206016197,69,-961,292
1657206016237,129,-1090,259
1657206016277,158,-1187,188
1657206016317,-62,-1056,312
1657206016357,-217,-1093,300
1657206016397,-95,-1181,200
1657206016437,-170,-1107,235
1657206016477,-231,-947,272
1657206016517,-245,-883,228
1657206016557,-253,-847,201
1657206016597,-237,-855,208
1657206016637,-216,-904,194
1657206016677,-246,-959,198
1657206016717,-275,-1032,177
1657206016757,-290,-1173,145
1657206016797,-333,-1348,97
1657206016837,-332,-1403,126
1657206016877,-376,-1234,177
1657206016917,-320,-1126,116
1657206016957,-254,-1155,257
1657206016997,-220,-1142,337
1657206017037,-255,-1021,446
1657206017077,-208,-924,573
1657206017117,-166,-826,570
1657206017157,-96,-768,522
1657206017197,-60,-758,521
1657206017237,-34,-817,411
1657206017277,-19,-847,418
1657206017317,30,-859,405
1657206017357,34,-984,341
1657206017397,53,-1195,249
1657206017437,31,-1167,262
1657206017477,-190,-1056,284
1657206017517,-226,-1155,199
1657206017557,-137,-1145,178
1657206017597,-205,-988,238
1657206017637,-259,-936,226
1657206017677,-246,-960,184
1657206017717,-244,-980,234
1657206017757,-160,-944,186
1657206017797,-75,-860,151
1657206017837,-45,-808,183
1657206017877,-156,-842,210
1657206017917,-165,-975,242
1657206017957,-219,-1166,377
1657206017997,-272,-1310,534
1657206018037,-501,-1320,446
1657206018077,-606,-1214,242
1657206018117,-355,-1115,177
1657206018157,-153,-1056,229
1657206018197,-112,-1004,230
1657206018237,-162,-917,301
1657206018277,-131,-858,390
1657206018317,-110,-890,412
1657206018357,-115,-886,442
1657206018397,-118,-939,494
1657206018437,-129,-1048,507
1657206018477,35,-1046,489
1657206018517,133,-989,369
1657206018557,139,-972,255
1657206018597,104,-1032,222
1657206018637,-117,-955,226
1657206018677,-197,-993,285
1657206018717,-58,-1012,316
1657206018757,-143,-968,340
1657206018797,-205,-875,351
1657206018837,-263,-848,335
1657206018877,-290,-916,278
1657206018917,-303,-970,251
1657206018957,-297,-1031,250
1657206018997,-305,-1101,194
1657206019037,-218,-1114,195
1657206019077,-214,-1154,201
1657206019117,-208,-1179,198
1657206019157,-183,-1207,218
1657206019197,-313,-1193,152
1657206019237,-338,-1131,115
1657206019277,-191,-1045,201
1657206019317,-125,-1036,261
1657206019357,-166,-1066,397
1657206019397,-244,-987,443
1657206019437,-212,-863,513
1657206019477,-120,-818,557
1657206019517,-82,-809,444
1657206019557,-53,-816,444
1657206019597,-28,-834,425
1657206019637,-52,-910,406
1657206019677,-38,-984,372
1657206019717,6,-1049,347
1657206019757,83,-1237,245
1657206019797,-14,-1222,190
1657206019837,-202,-1087,253
1657206019877,-147,-1065,301
1657206019917,-95,-1046,229
1657206019957,-175,-901,275
1657206019997,-234,-834,271
1657206020037,-240,-832,197
1657206020077,-222,-870,212
1657206020117,-234,-925,222
1657206020157,-259,-957,256
1657206020197,-311,-1029,192
1657206020237,-258,-1104,166
1657206020277,-340,-1217,233
1657206020317,-222,-1166,227
1657206020357,-214,-1206,334
1657206020397,-383,-1137,238
1657206020437,-349,-1026,140
1657206020477,-202,-982,228
1657206020517,-132,-932,329
1657206020557,-259,-925,357
1657206020597,-324,-892,359
1657206020637,-383,-925,403
1657206020677,-336,-889,439
1657206020717,-313,-846,418
1657206020757,-254,-844,419
1657206020797,-158,-848,450
1657206020837,-121,-845,466
1657206020877,-106,-928,420
1657206020917,-44,-1066,389
1657206020957,40,-1239,343
1657206020997,-177,-1175,258
1657206021037,-221,-1155,155
1657206021077,-31,-1042,205
1657206021117,-31,-900,279
1657206021157,-73,-779,298
1657206021197,-137,-746,301
1657206021237,-189,-747,281
1657206021277,-153,-830,357
1657206021317,-233,-944,367
1657206021357,-310,-1000,348
1657206021397,-399,-1122,300
1657206021437,-362,-1156,245
1657206021477,-319,-1257,243
1657206021517,-331,-1383,227
1657206021557,-389,-1410,292
1657206021597,-486,-1292,218
1657206021637,-354,-1162,181
1657206021677,-150,-1005,284
1657206021717,-21,-1016,350
1657206021757,-97,-936,405
1657206021797,-218,-869,501
1657206021837,-183,-845,544
1657206021877,-151,-856,492
1657206021917,-133,-863,455
1657206021957,-102,-856,414
1657206021997,-91,-907,423
1657206022037,-62,-952,417
1657206022077,4,-1004,395
1657206022117,160,-1179,330
1657206022157,80,-1095,276
1657206022197,-136,-1045,179
1657206022237,-45,-1090,156
1657206022277,-39,-1064,207
1657206022317,-117,-953,264
1657206022357,-179,-880,283
1657206022397,-204,-839,237
1657206022437,-194,-865,260
1657206022477,-205,-884,285
1657206022517,-223,-962,315
1657206022557,-263,-1037,230
1657206022597,-285,-1134,160
1657206022637,-292,-1259,97
1657206022677,-296,-1348,123
1657206022717,-350,-1391,209
1657206022757,-447,-1323,163
1657206022797,-446,-1154,128
1657206022837,-241,-1092,139
1657206022877,-109,-1018,335
1657206022917,-141,-965,494
1657206022957,-249,-930,570
1657206022997,-225,-938,550
1657206023037,-161,-914,529
1657206023077,-116,-874,507
1657206023117,-116,-879,472
1657206023157,-57,-866,427
1657206023197,0,-897,405
1657206023237,55,-910,337
1657206023277,106,-991,297
1657206023317,113,-1218,197
1657206023357,-46,-1188,230
1657206023397,-242,-1079,260
1657206023437,-112,-1103,162
1657206023477,-59,-1032,203
1657206023517,-116,-915,224
1657206023557,-213,-882,233
1657206023597,-292,-911,242
1657206023637,-252,-956,180
1657206023677,-221,-1000,216
1657206023717,-269,-1030,190
1657206023757,-275,-1038,200
1657206023797,-219,-1145,139
1657206023837,-179,-1165,178
1657206023877,-161,-1304,286
1657206023917,-320,-1339,208
1657206023957,-474,-1199,100
1657206023997,-287,-1111,179
1657206024037,-104,-1055,375
1657206024077,-72,-912,479
1657206024117,-167,-818,493
1657206024157,-122,-841,430
1657206024197,-75,-883,371
1657206024237,-105,-875,351
1657206024277,-134,-868,382
1657206024317,-89,-926,374
1657206024357,-73,-916,359
1657206024397,-39,-965,338
1657206024437,46,-981,269
1657206024477,160,-1205,256
1657206024517,69,-1252,270
1657206024557,-164,-1078,374
1657206024597,-179,-1078,328
1657206024637,-70,-1050,204
1657206024677,-172,-933,233
1657206024717,-222,-851,260
1657206024757,-280,-844,253
1657206024797,-327,-899,240
1657206024837,-284,-938,222
1657206024877,-307,-1002,177
1657206024917,-293,-1014,185
1657206024957,-242,-1054,159
1657206024997,-203,-1110,178
1657206025037,-235,-1229,212
1657206025077,-209,-1268,251
1657206025117,-294,-1207,279
1657206025157,-339,-1126,139
1657206025197,-179,-1023,249
1657206025237,-55,-1000,324
1657206025277,-169,-938,340
1657206025317,-227,-854,420
1657206025357,-159,-787,454
1657206025397,-151,-806,398
1657206025437,-148,-839,344
1657206025477,-137,-870,304
1657206025517,-110,-923,322
1657206025557,-74,-941,312
1657206025597,-18,-1068,326
1657206025637,11,-1260,287
1657206025677,63,-1346,242
1657206025717,-141,-1080,333
1657206025757,-172,-996,288
1657206025797,31,-1008,195
1657206025837,-22,-902,258
1657206025877,-107,-829,274
1657206025917,-179,-799,267
1657206025957,-213,-802,257
1657206025997,-158,-844,237
1657206026037,-154,-897,221
1657206026077,-185,-973,192
1657206026117,-226,-1016,181
1657206026157,-253,-1139,149
1657206026197,-212,-1237,130
1657206026237,-191,-1362,240
1657206026277,-333,-1387,239
1657206026317,-487,-1278,152
1657206026357,-337,-1172,117
1657206026397,-164,-1057,263
1657206026437,-99,-942,358
1657206026477,-194,-841,402
1657206026517,-180,-783,442
1657206026557,-154,-782,434
1657206026597,-158,-834,386
1657206026637,-148,-837,375
1657206026677,-108,-861,413
1657206026717,-133,-965,398
1657206026757,-119,-1005,375
1657206026797,-44,-1134,409
1657206026837,95,-1228,304
1657206026877,61,-1193,393
1657206026917,-19,-1094,155
1657206026957,153,-1071,242
1657206026997,88,-988,298
1657206027037,-99,-894,280
1657206027077,-162,-849,225
1657206027117,-179,-830,144
1657206027157,-169,-814,169
1657206027197,-176,-833,251
1657206027237,-182,-916,261
1657206027277,-222,-986,257
1657206027317,-269,-1079,167
1657206027357,-244,-1165,91
1657206027397,-213,-1230,160
1657206027437,-226,-1294,182
1657206027477,-378,-1340,178
1657206027517,-477,-1241,90
1657206027557,-258,-1137,209
1657206027597,-178,-1061,294
1657206027637,-177,-988,329
1657206027677,-223,-929,390
1657206027717,-174,-892,418
1657206027757,-168,-910,436
1657206027797,-154,-910,440
1657206027837,-131,-891,467
1657206027877,-93,-900,460
1657206027917,-36,-943,415
1657206027957,41,-971,368
1657206027997,164,-1072,318
1657206028037,247,-1173,221
1657206028077,-25,-1011,243
1657206028117,-120,-981,277
1657206028157,-11,-1018,250
1657206028197,-100,-1024,235
1657206028237,-205,-939,259
1657206028277,-282,-948,259
1657206028317,-302,-1028,164
1657206028357,-290,-1047,177
1657206028397,-294,-1055,214
1657206028437,-301,-1037,187
1657206028477,-287,-1030,163
1657206028517,-203,-1076,160
1657206028557,-219,-1178,93
1657206028597,-186,-1217,195
1657206028637,-241,-1203,251
1657206028677,-318,-1148,160
1657206028717,-229,-1087,211
1657206028757,-153,-1073,285
1657206028797,-207,-1030,374
1657206028837,-230,-949,436
1657206028877,-198,-877,462
1657206028917,-150,-830,449
1657206028957,-112,-842,416
1657206028997,-109,-902,377
1657206029037,-78,-896,352
1657206029077,-35,-953,413
1657206029117,8,-988,356
1657206029157,60,-1131,291
1657206029197,177,-1289,269
1657206029237,-62,-1122,329
1657206029277,-212,-1120,201
1657206029317,49,-1021,152
1657206029357,25,-867,215
1657206029397,-110,-810,200
1657206029437,-167,-829,138
1657206029477,-209,-860,152
1657206029517,-210,-955,196
1657206029557,-268,-1030,241
1657206029597,-306,-1023,285
1657206029637,-309,-1057,230
1657206029677,-257,-1139,126
1657206029717,-217,-1242,111
1657206029757,-133,-1301,291
1657206029797,-281,-1314,327
1657206029837,-409,-1237,131
1657206029877,-290,-1103,86
1657206029917,-127,-1005,232
1657206029957,-23,-954,354
1657206029997,-158,-901,372
1657206030037,-225,-872,423
1657206030077,-193,-900,407
1657206030117,-185,-873,429
1657206030157,-144,-857,453
1657206030197,-112,-884,429
1657206030237,-81,-941,410
1657206030277,-34,-1000,340
1657206030317,53,-1039,307
1657206030357,145,-1142,274
1657206030397,47,-1097,307
1657206030437,-233,-1051,192
1657206030477,-186,-1096,134
1657206030517,-108,-1035,171
1657206030557,-136,-922,227
1657206030597,-180,-836,230
1657206030637,-204,-812,199
1657206030677,-184,-837,236
1657206030717,-188,-916,202
1657206030757,-241,-966,186
1657206030797,-280,-1025,183
1657206030837,-299,-1166,137
1657206030877,-301,-1277,133
1657206030917,-255,-1383,252
1657206030957,-322,-1312,276
1657206030997,-479,-1207,179
1657206031037,-314,-1108,144
1657206031077,-165,-1037,287
1657206031117,-95,-916,383
1657206031157,-222,-885,432
1657206031197,-179,-854,495
1657206031237,-133,-860,425
1657206031277,-154,-876,390
1657206031317,-132,-857,406
1657206031357,-108,-874,394
1657206031397,-94,-912,355
1657206031437,-51,-974,334
1657206031477,-2,-1014,310
1657206031517,53,-1166,215
1657206031557,101,-1213,209
1657206031597,-147,-1031,260
1657206031637,-219,-1011,221
1657206031677,-75,-996,236
1657206031717,-120,-933,282
1657206031757,-188,-851,292
1657206031797,-245,-850,235
1657206031837,-270,-896,193
1657206031877,-272,-954,217
1657206031917,-245,-987,238
1657206031957,-277,-1018,203
1657206031997,-286,-1022,160
1657206032037,-219,-1109,146
1657206032077,-197,-1205,121
1657206032117,-132,-1279,293
1657206032157,-284,-1271,346
1657206032197,-438,-1194,204
1657206032237,-293,-1057,183
1657206032277,-148,-1013,261
1657206032317,-134,-931,322
1657206032357,-227,-868,421
1657206032397,-178,-825,468
1657206032437,-144,-834,429
1657206032477,-136,-839,418
1657206032517,-138,-863,408
1657206032557,-134,-908,376
1657206032597,-87,-986,371
1657206032637,-40,-1033,305
1657206032677,16,-1089,251
1657206032717,71,-1238,227
1657206032757,84,-1116,294
1657206032797,-173,-957,324
1657206032837,-159,-1016,199
1657206032877,-81,-1003,182
1657206032917,-157,-897,209
1657206032957,-206,-844,194
1657206032997,-233,-862,154
1657206033037,-231,-897,190
1657206033077,-227,-939,234
1657206033117,-262,-960,230
1657206033157,-271,-956,189
1657206033197,-267,-1040,119
1657206033237,-212,-1169,115
1657206033277,-168,-1271,293
1657206033317,-264,-1241,397
1657206033357,-439,-1194,250
1657206033397,-378,-1131,150
1657206033437,-179,-1047,229
1657206033477,-127,-948,252
1657206033517,-191,-880,277
1657206033557,-167,-831,336
1657206033597,-141,-822,349
1657206033637,-134,-824,348
1657206033677,-175,-874,351
1657206033717,-176,-934,344
1657206033757,-116,-982,350
1657206033797,-100,-1058,328
1657206033837,-48,-1093,335
1657206033877,47,-1239,312
1657206033917,97,-1200,266
1657206033957,-100,-988,263
1657206033997,-96,-945,247
1657206034037,14,-967,173
1657206034077,-68,-891,215
1657206034117,-148,-814,251
1657206034157,-197,-838,217
1657206034197,-240,-891,180
1657206034237,-229,-982,171
1657206034277,-272,-1016,186
1657206034317,-299,-997,201
1657206034357,-233,-1036,168
1657206034397,-177,-1155,153
1657206034437,-202,-1192,194
1657206034477,-183,-1200,313
1657206034517,-294,-1196,261
1657206034557,-379,-1149,91
1657206034597,-250,-1083,105
1657206034637,-153,-1029,219
1657206034677,-140,-1008,287
1657206034717,-240,-933,327
1657206034757,-213,-858,391
1657206034797,-150,-860,413
1657206034837,-150,-892,357
1657206034877,-117,-858,396
1657206034917,-92,-908,386
1657206034957,-52,-1000,372
1657206034997,-28,-1041,359
1657206035037,17,-1101,336
1657206035077,116,-1216,282
1657206035117,-109,-1046,241
1657206035157,-116,-970,256
1657206035197,20,-995,216
1657206035237,-73,-919,241
1657206035277,-141,-858,259
1657206035317,-177,-855,156
1657206035357,-196,-876,164
1657206035397,-190,-901,245
1657206035437,-232,-977,272
1657206035477,-276,-1059,260
1657206035517,-293,-1114,222
1657206035557,-270,-1136,201
1657206035597,-229,-1173,163
1657206035637,-215,-1231,143
1657206035677,-244,-1194,178
1657206035717,-308,-1190,113
1657206035757,-324,-1150,57
1657206035797,-229,-1076,187
1657206035837,-182,-1066,317
1657206035877,-238,-1041,333
1657206035917,-236,-916,423
1657206035957,-160,-853,490
1657206035997,-142,-882,458
1657206036037,-118,-900,453
1657206036077,-85,-936,458
1657206036117,-59,-936,410
1657206036157,6,-963,411
1657206036197,79,-957,345
1657206036237,191,-1179,263
1657206036277,6,-1083,199
1657206036317,-211,-988,195
1657206036357,-71,-1072,229
1657206036397,-102,-1017,178
1657206036437,-171,-883,204
1657206036477,-204,-858,174
1657206036517,-260,-900,78
1657206036557,-258,-973,127
1657206036597,-274,-1018,201
1657206036637,-306,-1055,173
1657206036677,-297,-1125,159
1657206036717,-286,-1186,93
1657206036757,-256,-1178,75
1657206036797,-222,-1205,146
1657206036837,-286,-1131,230
1657206036877,-424,-1189,145
1657206036917,-459,-1152,50
1657206036957,-290,-1047,249
1657206036997,-246,-1093,375
1657206037037,-284,-998,421
1657206037077,-258,-875,524
1657206037117,-183,-782,554
1657206037157,-139,-795,503
1657206037197,-138,-806,425
1657206037237,-100,-860,419
1657206037277,-92,-888,392
1657206037317,-48,-922,374
1657206037357,-20,-961,375
1657206037397,46,-1096,304
1657206037437,170,-1311,216
1657206037477,-89,-1180,275
1657206037517,-231,-1069,246
1657206037557,8,-999,263
1657206037597,-39,-954,324
1657206037637,-184,-885,351
1657206037677,-268,-923,313
1657206037717,-304,-942,282
1657206037757,-317,-995,237
1657206037797,-259,-1024,104
1657206037837,-287,-1057,136
1657206037877,-260,-1059,105
1657206037917,-185,-1072,167
1657206037957,-159,-1098,184
1657206037997,-121,-1223,275
1657206038037,-185,-1316,271
1657206038077,-351,-1179,258
1657206038117,-321,-1081,233
1657206038157,-199,-993,296
1657206038197,-75,-1056,379
1657206038237,-180,-1020,394
1657206038277,-159,-889,516
1657206038317,-117,-841,604
1657206038357,-121,-908,534
1657206038397,-122,-935,416
1657206038437,-64,-927,362
1657206038477,-38,-921,294
1657206038517,-42,-937,195
1657206038557,11,-956,161
1657206038597,57,-965,169
1657206038637,157,-1201,179
1657206038677,-114,-1148,207
1657206038717,-205,-1027,301
1657206038757,-39,-1045,357
1657206038797,-117,-1013,336
1657206038837,-173,-954,383
1657206038877,-253,-889,404
1657206038917,-251,-923,379
1657206038957,-213,-908,344
1657206038997,-199,-919,385
1657206039037,-190,-945,288
1657206039077,-205,-1019,176
1657206039117,-174,-1132,43
1657206039157,-221,-1275,17
1657206039197,-222,-1356,102
1657206039237,-312,-1332,205
1657206039277,-444,-1247,140
1657206039317,-297,-1100,202
1657206039357,-183,-991,373
1657206039397,-127,-1003,444
1657206039437,-298,-987,535
1657206039477,-277,-959,591
1657206039517,-208,-978,577
1657206039557,-232,-1062,528
1657206039597,-238,-1004,516
1657206039637,-140,-953,509
1657206039677,-99,-945,437
1657206039717,-50,-940,393
1657206039757,42,-878,373
1657206039797,54,-899,256
1657206039837,149,-1029,156
1657206039877,74,-973,182
1657206039917,-132,-946,249
1657206039957,-48,-983,284
1657206039997,-36,-1041,342
1657206040037,-195,-1053,439
1657206040077,-345,-1027,404
1657206040117,-473,-1168,342
1657206040157,-495,-1175,189
1657206040197,-442,-1106,190
1657206040237,-356,-1051,153
1657206040277,-300,-1060,137
1657206040317,-215,-1083,129
1657206040357,-160,-1112,163
1657206040397,-153,-1119,207
1657206040437,-161,-1227,218
1657206040477,-191,-1212,276
1657206040517,-296,-1241,341
1657206040557,-414,-1252,168
1657206040597,-421,-1095,302
1657206040637,-527,-1165,554
1657206040677,-633,-1220,546
1657206040717,-812,-1247,413
1657206040757,-721,-1146,203
1657206040797,-628,-1068,-167
1657206040837,-171,-604,-204
1657206040877,-448,-656,-483
1657206040917,-224,-263,-306
1657206040957,-336,-275,-510
1657206040997,-349,-307,-671
1657206041037,-429,-57,-790
1657206041077,-416,-292,-716
1657206041117,-498,-147,-746
1657206041157,-501,-49,-824
1657206041197,-565,-36,-772
1657206041237,-343,75,-770
1657206041277,-379,106,-851
1657206041317,-339,-93,-863
1657206041357,-271,-53,-1070
1657206041397,-317,-70,-1005
1657206041437,-381,-156,-1051
1657206041477,-187,-8,-912
1657206041517,-139,22,-968
1657206041557,-137,-31,-1006
1657206041597,-147,-106,-1177
