timestamp,accel_X,accel_Y,accel_Z
1657206167717,-818,-292,-728
1657206167757,-655,-182,-599
1657206167797,-562,-273,-862
1657206167837,-649,-245,-726
1657206167877,-538,-240,-873
1657206167917,-606,-252,-839
1657206167957,-461,-165,-841
1657206167997,-511,-214,-898
1657206168037,-541,-252,-890
1657206168077,-467,-204,-856
1657206168117,-487,-262,-892
1657206168157,-531,-221,-894
1657206168197,-484,-176,-847
1657206168237,-504,-173,-908
1657206168277,-514,-155,-895
1657206168317,-499,-159,-910
1657206168357,-564,-208,-885
1657206168397,-532,-220,-895
1657206168437,-518,-228,-882
1657206168477,-498,-193,-835
1657206168517,-441,-192,-874
1657206168557,-448,-158,-834
1657206168597,-467,-184,-891
1657206168637,-478,-195,-902
1657206168677,-389,-166,-829
1657206168717,-743,-449,-1045
1657206168757,-504,-232,-894
1657206168797,-476,-233,-877
1657206168837,-597,-307,-982
1657206168877,-469,-208,-874
1657206168917,-474,-142,-794
1657206168957,-530,-210,-861
1657206168997,-577,-235,-888
1657206169037,-590,-227,-829
1657206169077,-495,-142,-755
1657206169117,-469,-127,-845
1657206169157,-588,-189,-906
1657206169197,-604,-164,-804
1657206169237,-575,-271,-794
1657206169277,-701,-281,-696
1657206169317,-681,-272,-592
1657206169357,-592,-281,-712
1657206169397,-572,-260,-627
1657206169437,-415,-280,-716
1657206169477,-571,-445,-806
1657206169517,-550,-559,-919
1657206169557,-573,-508,-902
1657206169597,-651,-573,-841
1657206169637,-658,-570,-781
1657206169677,-557,-528,-588
1657206169717,-625,-554,-575
1657206169757,-624,-644,-462
1657206169797,-552,-674,-438
1657206169837,-452,-541,-426
1657206169877,-225,-499,-339
1657206169917,-704,-1476,-688
1657206169957,-723,-1002,-446
1657206169997,-558,-821,-458
1657206170037,-482,-570,-349
1657206170077,-481,-560,-411
1657206170117,-547,-505,-508
1657206170157,-635,-548,-487
1657206170197,-631,-537,-571
1657206170237,-786,-680,-525
1657206170277,-682,-549,-545
1657206170317,-588,-420,-495
1657206170357,-747,-544,-467
1657206170397,-806,-502,-504
1657206170437,-881,-575,-467
1657206170477,-838,-563,-521
1657206170517,-870,-641,-465
1657206170557,-761,-617,-521
1657206170597,-733,-575,-492
1657206170637,-790,-622,-553
1657206170677,-694,-522,-515
1657206170717,-686,-483,-461
1657206170757,-673,-395,-431
1657206170797,-658,-342,-417
1657206170837,-695,-375,-479
1657206170877,-723,-361,-526
1657206170917,-757,-394,-533
1657206170957,-771,-378,-563
1657206170997,-961,-462,-617
1657206171037,-961,-433,-677
1657206171077,-855,-461,-690
1657206171117,-672,-445,-697
1657206171157,-588,-438,-657
1657206171197,-519,-491,-679
1657206171237,-449,-459,-611
1657206171277,-570,-495,-603
1657206171317,-621,-504,-605
1657206171357,-544,-545,-713
1657206171397,-388,-671,-818
1657206171437,-341,-563,-816
1657206171477,-242,-502,-737
1657206171517,-243,-528,-693
1657206171557,-331,-646,-681
1657206171597,-239,-354,-596
1657206171637,-648,-805,-946
1657206171677,-428,-491,-698
1657206171717,-539,-387,-333
1657206171757,-585,-745,-796
1657206171797,-610,-539,-557
1657206171837,-566,-584,-538
1657206171877,-491,-482,-408
1657206171917,-816,-696,-278
1657206171957,-663,-502,-334
1657206171997,-293,-528,-390
1657206172037,-570,-623,-340
1657206172077,-155,-370,-295
1657206172117,-264,-514,9
1657206172157,-182,-600,148
1657206172197,-106,-688,332
1657206172237,-104,-1237,689
1657206172277,-341,-1792,875
1657206172317,-543,-2046,891
1657206172357,-1096,-2046,701
1657206172397,-982,-1415,634
1657206172437,-265,-1138,552
1657206172477,31,-941,224
1657206172517,-76,-911,27
1657206172557,-113,-873,61
1657206172597,-123,-859,275
1657206172637,-195,-959,334
1657206172677,-226,-1017,313
1657206172717,-245,-1033,325
1657206172757,-248,-1011,353
1657206172797,-189,-1007,351
1657206172837,-180,-1010,332
1657206172877,-215,-1014,347
1657206172917,-197,-1003,326
1657206172957,-145,-967,279
1657206172997,-123,-938,245
1657206173037,-135,-926,208
1657206173077,-212,-962,179
1657206173117,-86,-881,185
1657206173157,-112,-878,214
1657206173197,-170,-896,233
1657206173237,-198,-939,213
1657206173277,-178,-943,221
1657206173317,-284,-1015,232
1657206173357,-295,-1040,241
1657206173397,-359,-1080,268
1657206173437,-377,-1036,318
1657206173477,-330,-964,335
1657206173517,-292,-933,325
1657206173557,-285,-933,299
1657206173597,-263,-954,283
1657206173637,-279,-973,279
1657206173677,-284,-1009,300
1657206173717,-382,-1080,296
1657206173757,-264,-999,313
1657206173797,-266,-953,360
1657206173837,-302,-949,313
1657206173877,-251,-907,290
1657206173917,-232,-867,331
1657206173957,-265,-856,321
1657206173997,-239,-848,318
1657206174037,-308,-927,309
1657206174077,-536,-1039,380
1657206174117,-480,-964,393
1657206174157,-436,-915,354
1657206174197,-422,-867,306
1657206174237,-383,-810,288
1657206174277,-460,-824,312
1657206174317,-474,-812,323
1657206174357,-611,-891,339
1657206174397,-893,-1060,337
1657206174437,-1075,-1196,258
1657206174477,-875,-1038,174
1657206174517,-889,-902,77
1657206174557,-633,-691,-27
1657206174597,-634,-550,-42
1657206174637,-550,-445,-89
1657206174677,-593,-358,-55
1657206174717,-790,-460,-81
1657206174757,-777,-375,-168
1657206174797,-1083,-616,-277
1657206174837,-904,-343,-315
1657206174877,-872,-376,-344
1657206174917,-889,-541,-652
1657206174957,-646,-241,-486
1657206174997,-482,-253,-532
1657206175037,-767,-406,-492
1657206175077,-671,-224,-452
1657206175117,-844,-461,-454
1657206175157,-733,-278,-482
1657206175197,-668,-204,-419
1657206175237,-829,-364,-467
1657206175277,-761,-214,-464
1657206175317,-919,-418,-421
1657206175357,-807,-532,-679
1657206175397,-762,-360,-519
1657206175437,-621,-366,-677
1657206175477,-797,-495,-604
1657206175517,-689,-575,-573
1657206175557,-550,-590,-524
1657206175597,-1079,-316,-613
1657206175637,-830,-990,-561
1657206175677,-704,-521,-331
1657206175717,-604,-498,-339
1657206175757,-664,-511,-390
1657206175797,-686,-206,-233
1657206175837,-641,-396,-283
1657206175877,-657,-326,-421
1657206175917,-950,-587,-387
1657206175957,-778,-504,-388
1657206175997,-550,-311,-330
1657206176037,-424,-486,-293
1657206176077,-552,-564,-283
1657206176117,-482,-623,-140
1657206176157,-512,-840,-123
1657206176197,-409,-809,-20
1657206176237,-379,-977,160
1657206176277,-316,-1073,219
1657206176317,-182,-1163,261
1657206176357,-197,-1285,293
1657206176397,-259,-1453,335
1657206176437,-214,-1596,420
1657206176477,-320,-1430,548
1657206176517,-314,-1171,486
1657206176557,-250,-1037,282
1657206176597,-150,-952,174
1657206176637,1,-941,197
1657206176677,62,-977,227
1657206176717,-7,-929,287
1657206176757,-34,-864,340
1657206176797,-22,-798,312
1657206176837,-16,-828,222
1657206176877,-65,-883,191
1657206176917,-97,-936,190
1657206176957,-127,-966,181
1657206176997,-156,-980,204
1657206177037,-147,-1012,211
1657206177077,-185,-994,239
1657206177117,-160,-1039,249
1657206177157,-78,-1158,238
1657206177197,-104,-1191,270
1657206177237,-244,-1136,294
1657206177277,-276,-1065,237
1657206177317,-191,-974,200
1657206177357,-98,-908,212
1657206177397,-4,-904,246
1657206177437,-47,-976,329
1657206177477,-211,-1054,444
1657206177517,-194,-995,491
1657206177557,-168,-937,481
1657206177597,-111,-884,432
1657206177637,-73,-888,390
1657206177677,-80,-879,321
1657206177717,-57,-888,271
1657206177757,-54,-929,222
1657206177797,-57,-970,188
1657206177837,-39,-1026,206
1657206177877,101,-1195,255
1657206177917,-7,-1251,264
1657206177957,-358,-1099,205
1657206177997,-213,-979,239
1657206178037,-1,-964,231
1657206178077,-41,-910,286
1657206178117,-91,-836,336
1657206178157,-75,-797,336
1657206178197,-121,-837,298
1657206178237,-135,-883,255
1657206178277,-154,-945,236
1657206178317,-215,-961,218
1657206178357,-215,-997,206
1657206178397,-142,-1077,230
1657206178437,-131,-1148,294
1657206178477,-93,-1308,336
1657206178517,-217,-1280,364
1657206178557,-370,-1079,340
1657206178597,-312,-948,261
1657206178637,-95,-944,268
1657206178677,26,-966,288
1657206178717,-74,-935,361
1657206178757,-200,-930,466
1657206178797,-158,-901,505
1657206178837,-65,-898,486
1657206178877,-52,-889,458
1657206178917,-24,-879,405
1657206178957,11,-897,335
1657206178997,4,-919,259
1657206179037,-20,-978,204
1657206179077,97,-1126,262
1657206179117,146,-1137,275
1657206179157,-259,-1135,289
1657206179197,-96,-1107,331
1657206179237,14,-1002,324
1657206179277,-112,-806,353
1657206179317,-98,-719,310
1657206179357,-121,-765,270
1657206179397,-161,-832,271
1657206179437,-171,-900,288
1657206179477,-188,-982,260
1657206179517,-183,-1099,274
1657206179557,-194,-1194,279
1657206179597,-249,-1211,335
1657206179637,-187,-1271,373
1657206179677,-375,-1193,305
1657206179717,-407,-1140,256
1657206179757,-227,-1129,265
1657206179797,-125,-1033,350
1657206179837,-118,-893,447
1657206179877,-93,-812,499
1657206179917,-22,-827,520
1657206179957,37,-870,468
1657206179997,112,-982,435
1657206180037,85,-1011,433
1657206180077,120,-1052,439
1657206180117,83,-1054,334
1657206180157,212,-1132,228
1657206180197,52,-961,334
1657206180237,-43,-986,370
1657206180277,-39,-951,265
1657206180317,-176,-761,284
1657206180357,-231,-724,231
1657206180397,-284,-839,169
1657206180437,-362,-1006,216
1657206180477,-443,-1061,270
1657206180517,-403,-1029,267
1657206180557,-278,-1112,295
1657206180597,-172,-1282,355
1657206180637,-316,-1340,362
1657206180677,-494,-1223,381
1657206180717,-345,-1050,333
1657206180757,-231,-1010,328
1657206180797,-288,-951,375
1657206180837,-303,-977,413
1657206180877,-295,-980,445
1657206180917,-114,-1038,388
1657206180957,-216,-1252,419
1657206180997,-257,-1321,432
1657206181037,-97,-1196,416
1657206181077,-149,-1174,147
1657206181117,158,-1052,57
1657206181157,-82,-788,237
1657206181197,-121,-608,271
1657206181237,-126,-363,191
1657206181277,-215,-255,191
1657206181317,-209,-249,174
1657206181357,-69,-459,200
1657206181397,-76,-804,260
1657206181437,-24,-1167,491
1657206181477,-316,-1638,663
1657206181517,-696,-1845,611
1657206181557,-990,-1754,421
1657206181597,-796,-1559,287
1657206181637,-617,-1305,156
1657206181677,-472,-1190,170
1657206181717,-332,-1123,346
1657206181757,-388,-1094,539
1657206181797,-351,-1056,648
1657206181837,-264,-1129,659
1657206181877,-151,-1073,592
1657206181917,14,-938,556
1657206181957,132,-831,490
1657206181997,173,-854,444
1657206182037,202,-826,433
1657206182077,161,-955,308
1657206182117,183,-1049,135
1657206182157,-13,-1069,231
1657206182197,54,-1132,160
1657206182237,-36,-1016,219
1657206182277,-166,-881,315
1657206182317,-242,-966,289
1657206182357,-337,-1117,352
1657206182397,-491,-1214,439
1657206182437,-571,-1230,533
1657206182477,-584,-1253,449
1657206182517,-527,-1305,309
1657206182557,-536,-1352,190
1657206182597,-612,-1302,83
1657206182637,-528,-1358,175
1657206182677,-397,-1263,357
1657206182717,-268,-1315,535
1657206182757,-231,-1217,587
1657206182797,-96,-1178,623
1657206182837,10,-1035,567
1657206182877,130,-897,458
1657206182917,188,-809,378
1657206182957,192,-828,355
1657206182997,155,-839,351
1657206183037,105,-922,325
1657206183077,119,-971,213
1657206183117,55,-1069,254
1657206183157,105,-1185,208
1657206183197,-126,-1094,159
1657206183237,-203,-936,215
1657206183277,-318,-1044,160
1657206183317,-669,-1191,276
1657206183357,-995,-1307,417
1657206183397,-984,-1373,400
1657206183437,-1088,-1493,179
1657206183477,-818,-1328,50
1657206183517,-630,-1145,66
1657206183557,-590,-1046,54
1657206183597,-543,-957,132
1657206183637,-398,-852,188
1657206183677,-716,-1098,43
1657206183717,-514,-854,145
1657206183757,-470,-872,-79
1657206183797,-304,-620,17
1657206183837,-396,-637,-72
1657206183877,-422,-779,-128
1657206183917,-375,-781,-125
1657206183957,-295,-937,-186
1657206183997,-163,-1062,-251
1657206184037,-162,-1020,-89
1657206184077,-458,-891,169
1657206184117,-371,-691,309
1657206184157,-239,-664,268
1657206184197,-317,-702,236
1657206184237,-232,-686,238
1657206184277,-167,-871,272
1657206184317,-330,-1193,187
1657206184357,-172,-1371,249
1657206184397,-412,-1709,284
1657206184437,-527,-1750,293
1657206184477,-771,-1742,194
1657206184517,-849,-1663,123
1657206184557,-908,-1521,17
1657206184597,-617,-1607,142
1657206184637,-295,-1621,391
1657206184677,-94,-1475,701
1657206184717,-166,-1367,796
1657206184757,24,-1244,833
1657206184797,139,-1065,749
1657206184837,198,-960,605
1657206184877,159,-875,488
1657206184917,161,-770,458
1657206184957,203,-770,442
1657206184997,180,-825,435
1657206185037,132,-945,312
1657206185077,108,-1166,59
1657206185117,190,-1116,65
1657206185157,273,-1158,-15
1657206185197,114,-1227,72
1657206185237,-51,-1199,315
1657206185277,-172,-1175,506
1657206185317,-342,-1273,551
1657206185357,-637,-1335,501
1657206185397,-682,-1260,493
1657206185437,-536,-1151,389
1657206185477,-356,-1204,279
1657206185517,-338,-1287,226
1657206185557,-400,-1318,345
1657206185597,-551,-1336,263
1657206185637,-677,-1346,126
1657206185677,-426,-1499,154
1657206185717,-195,-1432,427
1657206185757,-114,-1277,575
1657206185797,-83,-1219,602
1657206185837,-38,-1188,622
1657206185877,42,-1107,589
1657206185917,124,-986,522
1657206185957,174,-890,462
1657206185997,264,-911,437
1657206186037,271,-889,436
1657206186077,268,-1011,377
1657206186117,264,-1076,170
1657206186157,246,-1037,219
1657206186197,217,-1096,140
1657206186237,117,-1148,242
1657206186277,5,-1094,391
1657206186317,809,-1069,1537
1657206186357,-309,-1319,490
1657206186397,-626,-1492,432
1657206186437,-612,-1369,515
1657206186477,-523,-1230,484
1657206186517,-413,-1245,309
1657206186557,-291,-1231,151
1657206186597,-436,-1274,154
1657206186637,-514,-1343,104
1657206186677,-578,-1501,38
1657206186717,-270,-1543,314
1657206186757,-116,-1518,657
1657206186797,-93,-1321,719
1657206186837,-48,-1269,701
1657206186877,79,-1193,588
1657206186917,175,-1058,541
1657206186957,223,-916,472
1657206186997,214,-825,404
1657206187037,199,-774,354
1657206187077,235,-829,365
1657206187117,263,-894,375
1657206187157,340,-1127,247
1657206187197,214,-1221,177
1657206187237,176,-1253,250
1657206187277,133,-1240,309
1657206187317,37,-1190,466
1657206187357,-109,-1209,568
1657206187397,-400,-1387,446
1657206187437,-601,-1479,315
1657206187477,-589,-1356,474
1657206187517,-548,-1100,478
1657206187557,-401,-1068,310
1657206187597,-374,-1154,126
1657206187637,-351,-1307,190
1657206187677,-561,-1491,181
1657206187717,-694,-1708,195
1657206187757,-363,-1645,477
1657206187797,-42,-1516,731
1657206187837,102,-1271,748
1657206187877,121,-1136,642
1657206187917,174,-1070,560
1657206187957,239,-1025,528
1657206187997,240,-939,492
1657206188037,196,-878,485
1657206188077,222,-821,457
1657206188117,320,-915,429
1657206188157,285,-1054,275
1657206188197,310,-1198,124
1657206188237,271,-1193,199
1657206188277,157,-1188,277
1657206188317,13,-1208,336
1657206188357,-144,-1133,407
1657206188397,-281,-1127,352
1657206188437,-445,-1244,434
1657206188477,-549,-1287,435
1657206188517,-364,-1283,362
1657206188557,-405,-1275,311
1657206188597,-385,-1313,212
1657206188637,-428,-1433,175
1657206188677,-543,-1514,187
1657206188717,-591,-1511,175
1657206188757,-263,-1598,351
1657206188797,-100,-1457,611
1657206188837,-13,-1210,698
1657206188877,56,-1082,623
1657206188917,120,-1026,524
1657206188957,190,-971,479
1657206188997,217,-874,441
1657206189037,186,-836,426
1657206189077,202,-848,394
1657206189117,193,-867,381
1657206189157,198,-977,388
1657206189197,221,-1191,210
1657206189237,201,-1217,92
1657206189277,167,-1225,172
1657206189317,105,-1181,219
1657206189357,13,-1138,327
1657206189397,-116,-1046,395
1657206189437,-219,-1078,425
1657206189477,-303,-1091,460
1657206189517,-340,-1132,499
1657206189557,-303,-1129,450
1657206189597,-378,-1220,350
1657206189637,-460,-1319,303
1657206189677,-541,-1421,363
1657206189717,-741,-1423,360
1657206189757,-752,-1518,308
1657206189797,-429,-1580,337
1657206189837,-130,-1492,585
1657206189877,45,-1331,675
1657206189917,90,-1194,658
1657206189957,150,-1192,570
1657206189997,191,-1096,517
1657206190037,209,-977,500
1657206190077,178,-886,433
1657206190117,174,-830,395
1657206190157,252,-803,380
1657206190197,338,-832,335
1657206190237,367,-1136,190
1657206190277,252,-1240,67
1657206190317,161,-1287,150
1657206190357,87,-1287,279
1657206190397,-16,-1198,458
1657206190437,-157,-1108,553
1657206190477,-304,-1184,528
1657206190517,-463,-1233,457
1657206190557,-516,-1221,455
1657206190597,-395,-1203,419
1657206190637,-346,-1129,353
1657206190677,-260,-1136,313
1657206190717,-218,-1104,259
1657206190757,-275,-1283,283
1657206190797,-430,-1469,251
1657206190837,-567,-1579,312
1657206190877,-473,-1440,512
1657206190917,-163,-1398,706
1657206190957,35,-1219,640
1657206190997,103,-1113,532
1657206191037,153,-1048,457
1657206191077,204,-981,428
1657206191117,213,-934,382
1657206191157,160,-879,358
1657206191197,99,-823,385
1657206191237,229,-861,410
1657206191277,279,-985,417
1657206191317,261,-1241,331
1657206191357,289,-1319,150
1657206191397,80,-1297,104
1657206191437,52,-1178,258
1657206191477,-15,-1028,399
1657206191517,-149,-987,479
1657206191557,-282,-1062,428
1657206191597,-379,-1120,470
1657206191637,-347,-1144,550
1657206191677,-410,-1243,583
1657206191717,-535,-1218,489
1657206191757,-502,-1221,368
1657206191797,-538,-1218,257
1657206191837,-604,-1234,252
1657206191877,-775,-1452,157
1657206191917,-720,-1554,321
1657206191957,-402,-1339,813
1657206191997,-206,-1069,902
1657206192037,-66,-951,788
1657206192077,-93,-940,735
1657206192117,-121,-893,665
1657206192157,12,-881,656
1657206192197,41,-828,617
1657206192237,45,-859,596
1657206192277,15,-843,659
1657206192317,115,-939,669
1657206192357,208,-1096,461
1657206192397,103,-1092,390
1657206192437,37,-1173,334
1657206192477,-7,-1115,270
1657206192517,-24,-909,401
1657206192557,-256,-856,257
1657206192597,-169,-1061,607
1657206192637,-407,-1285,697
1657206192677,-574,-1369,762
1657206192717,-626,-1341,772
1657206192757,-734,-1265,625
1657206192797,-577,-1247,417
1657206192837,-618,-1332,379
1657206192877,-806,-1373,323
1657206192917,-604,-1607,417
1657206192957,-342,-1605,623
1657206192997,-107,-1407,772
1657206193037,94,-1299,801
1657206193077,164,-1172,725
1657206193117,211,-1068,635
1657206193157,266,-948,524
1657206193197,263,-852,436
1657206193237,214,-826,370
1657206193277,240,-878,351
1657206193317,279,-977,341
1657206193357,340,-1240,190
1657206193397,200,-1206,115
1657206193437,161,-1203,275
1657206193477,83,-1241,273
1657206193517,8,-1207,365
1657206193557,-151,-1120,463
1657206193597,-303,-1189,515
1657206193637,-507,-1228,565
1657206193677,-705,-1177,475
1657206193717,-523,-1279,332
1657206193757,-442,-1291,271
1657206193797,-557,-1276,365
1657206193837,-579,-1269,399
1657206193877,-548,-1287,348
1657206193917,-513,-1351,273
1657206193957,-270,-1526,399
1657206193997,-146,-1454,653
1657206194037,-79,-1240,744
1657206194077,-20,-1104,667
1657206194117,61,-1033,536
1657206194157,130,-985,527
1657206194197,166,-830,377
1657206194237,168,-775,305
1657206194277,179,-697,312
1657206194317,238,-773,301
1657206194357,309,-953,294
1657206194397,293,-1319,265
1657206194437,48,-1393,325
1657206194477,-86,-1390,409
1657206194517,-135,-1305,448
1657206194557,-190,-1103,511
1657206194597,-311,-978,441
1657206194637,-339,-953,374
1657206194677,-348,-930,409
1657206194717,-423,-993,394
1657206194757,-304,-1016,295
1657206194797,-333,-1115,232
1657206194837,-347,-1245,280
1657206194877,-468,-1396,411
1657206194917,-744,-1526,401
1657206194957,-857,-1548,367
1657206194997,-408,-1507,557
1657206195037,-130,-1373,679
1657206195077,18,-1143,661
1657206195117,84,-1070,583
1657206195157,110,-962,508
1657206195197,171,-864,468
1657206195237,237,-839,369
1657206195277,199,-816,265
1657206195317,204,-785,349
1657206195357,341,-899,368
1657206195397,316,-1079,320
1657206195437,289,-1315,327
1657206195477,132,-1343,416
1657206195517,107,-1412,471
1657206195557,32,-1365,485
1657206195597,-135,-1140,538
1657206195637,-322,-1084,486
1657206195677,-422,-1037,422
1657206195717,-425,-997,453
1657206195757,-264,-869,546
1657206195797,-218,-905,495
1657206195837,-159,-1075,387
1657206195877,-308,-1311,285
1657206195917,-537,-1454,300
1657206195957,-781,-1485,190
1657206195997,-699,-1505,215
1657206196037,-303,-1502,475
1657206196077,-130,-1346,649
1657206196117,10,-1185,664
1657206196157,72,-1137,587
1657206196197,80,-1026,555
1657206196237,202,-949,527
1657206196277,286,-844,461
1657206196317,206,-836,429
1657206196357,176,-957,420
1657206196397,280,-1034,425
1657206196437,215,-1232,377
1657206196477,117,-1213,179
1657206196517,204,-1217,258
1657206196557,160,-1121,326
1657206196597,62,-1031,350
1657206196637,-72,-909,357
1657206196677,-56,-800,405
1657206196717,-221,-1023,381
1657206196757,-329,-1132,472
1657206196797,-299,-1194,527
1657206196837,-260,-1226,476
1657206196877,-300,-1284,373
1657206196917,-464,-1418,281
1657206196957,-620,-1518,278
1657206196997,-962,-1463,215
1657206197037,-656,-1542,338
1657206197077,-308,-1417,539
1657206197117,-8,-1278,655
1657206197157,67,-1150,639
1657206197197,45,-1125,593
1657206197237,103,-1124,587
1657206197277,160,-1062,579
1657206197317,188,-1050,548
1657206197357,243,-1063,554
1657206197397,294,-1011,552
1657206197437,476,-1000,447
1657206197477,620,-1082,200
1657206197517,325,-1156,168
1657206197557,135,-1149,249
1657206197597,95,-1056,280
1657206197637,35,-979,378
1657206197677,168,-886,613
1657206197717,-214,-1287,576
1657206197757,-540,-1483,645
1657206197797,-772,-1462,702
1657206197837,-692,-1287,603
1657206197877,-370,-1264,347
1657206197917,-272,-1230,156
1657206197957,-385,-1364,198
1657206197997,-598,-1260,302
1657206198037,-600,-1502,370
1657206198077,-330,-1484,545
1657206198117,-36,-1370,762
1657206198157,51,-1175,736
1657206198197,125,-1137,681
1657206198237,249,-1027,567
1657206198277,305,-798,474
1657206198317,382,-765,422
1657206198357,310,-733,306
1657206198397,242,-917,343
1657206198437,167,-991,337
1657206198477,181,-1237,173
1657206198517,90,-1270,299
1657206198557,16,-1326,389
1657206198597,-100,-1194,390
1657206198637,-208,-920,385
1657206198677,-257,-858,243
1657206198717,-286,-852,200
1657206198757,-246,-954,251
1657206198797,-203,-1056,311
1657206198837,-361,-1127,363
1657206198877,-272,-1307,395
1657206198917,-335,-1491,352
1657206198957,-418,-1476,371
1657206198997,-498,-1290,352
1657206199037,-324,-1334,306
1657206199077,-250,-1235,399
1657206199117,-135,-1043,503
1657206199157,-136,-897,549
1657206199197,-15,-952,522
1657206199237,57,-915,449
1657206199277,129,-837,459
1657206199317,202,-844,426
1657206199357,111,-882,375
1657206199397,95,-964,451
1657206199437,138,-1013,429
1657206199477,201,-1279,253
1657206199517,110,-1181,237
1657206199557,76,-1147,372
1657206199597,43,-1137,239
1657206199637,-48,-912,302
1657206199677,-120,-770,297
1657206199717,-196,-859,292
1657206199757,-314,-874,299
1657206199797,-296,-907,297
1657206199837,-239,-1019,305
1657206199877,-240,-1207,325
1657206199917,-256,-1421,362
1657206199957,-321,-1618,433
1657206199997,-414,-1450,455
1657206200037,-469,-1285,389
1657206200077,-293,-1243,323
1657206200117,-125,-1107,420
1657206200157,-57,-889,452
1657206200197,-42,-786,474
1657206200237,19,-759,413
1657206200277,70,-721,388
1657206200317,153,-831,381
1657206200357,115,-888,322
1657206200397,100,-1055,431
1657206200437,74,-1072,428
1657206200477,160,-1309,361
1657206200517,161,-1231,344
1657206200557,30,-1158,467
1657206200597,-36,-1147,272
1657206200637,-125,-881,194
1657206200677,-174,-691,176
1657206200717,-185,-682,149
1657206200757,-223,-759,144
1657206200797,-229,-813,222
1657206200837,-142,-881,296
1657206200877,-215,-1004,316
1657206200917,-149,-1224,320
1657206200957,-234,-1431,375
1657206200997,-387,-1519,419
1657206201037,-559,-1505,386
1657206201077,-431,-1434,356
1657206201117,-284,-1180,467
1657206201157,-132,-980,499
1657206201197,-108,-836,417
1657206201237,-65,-779,398
1657206201277,54,-776,384
1657206201317,77,-724,320
1657206201357,124,-786,342
1657206201397,202,-908,362
1657206201437,96,-1019,405
1657206201477,159,-1143,400
1657206201517,246,-1320,389
1657206201557,0,-1226,462
1657206201597,-76,-1200,445
1657206201637,-23,-1119,310
1657206201677,-122,-825,322
1657206201717,-173,-706,273
1657206201757,-210,-733,184
1657206201797,-287,-831,160
1657206201837,-223,-900,226
1657206201877,-166,-999,304
1657206201917,-230,-1134,338
1657206201957,-154,-1294,388
1657206201997,-277,-1491,402
1657206202037,-438,-1306,376
1657206202077,-393,-1263,333
1657206202117,-233,-1285,240
1657206202157,-219,-1085,386
1657206202197,-117,-940,483
1657206202237,-167,-858,467
1657206202277,-138,-780,456
1657206202317,-9,-782,440
1657206202357,38,-800,397
1657206202397,133,-902,407
1657206202437,165,-1016,440
1657206202477,65,-1158,510
1657206202517,174,-1328,426
1657206202557,212,-1220,302
1657206202597,280,-1206,342
1657206202637,214,-1108,219
1657206202677,0,-814,244
1657206202717,-36,-706,140
1657206202757,-150,-737,95
1657206202797,-164,-775,139
1657206202837,-177,-851,209
1657206202877,-141,-952,296
1657206202917,-131,-1121,335
1657206202957,-133,-1294,341
1657206202997,-255,-1541,336
1657206203037,-362,-1518,342
1657206203077,-535,-1276,278
1657206203117,-329,-1322,230
1657206203157,-193,-1239,270
1657206203197,-130,-1047,388
1657206203237,-145,-859,456
1657206203277,-60,-840,476
1657206203317,-45,-808,420
1657206203357,37,-736,424
1657206203397,135,-800,417
1657206203437,142,-943,402
1657206203477,189,-1154,478
1657206203517,219,-1286,480
1657206203557,305,-1244,427
1657206203597,193,-1030,455
1657206203637,159,-1090,322
1657206203677,152,-978,144
1657206203717,43,-739,276
1657206203757,-45,-736,285
1657206203797,-190,-841,247
1657206203837,-254,-943,246
1657206203877,-224,-1033,350
1657206203917,-212,-1176,396
1657206203957,-309,-1376,389
1657206203997,-421,-1529,352
1657206204037,-473,-1470,325
1657206204077,-423,-1308,267
1657206204117,-209,-1323,310
1657206204157,-164,-1197,475
1657206204197,-84,-946,604
1657206204237,-36,-836,605
1657206204277,69,-829,476
1657206204317,73,-775,455
1657206204357,105,-858,490
1657206204397,196,-954,465
1657206204437,194,-1041,498
1657206204477,168,-1034,481
1657206204517,251,-1070,404
1657206204557,243,-1137,268
1657206204597,218,-1129,376
1657206204637,92,-1061,431
1657206204677,-31,-1020,317
1657206204717,-91,-879,270
1657206204757,-172,-851,281
1657206204797,-316,-919,299
1657206204837,-385,-961,316
1657206204877,-294,-955,308
1657206204917,-197,-1047,300
1657206204957,-182,-1131,294
1657206204997,-212,-1368,301
1657206205037,-242,-1552,332
1657206205077,-482,-1436,466
1657206205117,-506,-1343,392
1657206205157,-247,-1195,486
1657206205197,-67,-1045,494
1657206205237,-62,-876,506
1657206205277,-7,-848,519
1657206205317,11,-842,461
1657206205357,114,-846,447
1657206205397,112,-887,420
1657206205437,21,-938,408
1657206205477,150,-969,424
1657206205517,148,-932,388
1657206205557,220,-1071,276
1657206205597,188,-1107,371
1657206205637,131,-1190,420
1657206205677,-40,-1090,409
1657206205717,-181,-890,340
1657206205757,-197,-880,216
1657206205797,-287,-912,165
1657206205837,-265,-950,226
1657206205877,-225,-1009,325
1657206205917,-306,-1107,322
1657206205957,-330,-1208,299
1657206205997,-329,-1389,320
1657206206037,-362,-1466,367
1657206206077,-485,-1319,349
1657206206117,-343,-1326,332
1657206206157,-241,-1159,428
1657206206197,-121,-951,504
1657206206237,-93,-857,473
1657206206277,-51,-796,434
1657206206317,-19,-772,432
1657206206357,21,-804,406
1657206206397,78,-934,407
1657206206437,105,-1001,407
1657206206477,189,-1114,469
1657206206517,244,-1236,423
1657206206557,224,-1172,375
1657206206597,26,-1022,441
1657206206637,78,-1027,273
1657206206677,37,-934,214
1657206206717,-61,-786,257
1657206206757,-166,-828,246
1657206206797,-239,-859,294
1657206206837,-296,-973,344
1657206206877,-288,-1017,305
1657206206917,-275,-1121,273
1657206206957,-158,-1249,225
1657206206997,-258,-1335,196
1657206207037,-274,-1444,278
1657206207077,-517,-1406,188
1657206207117,-469,-1401,251
1657206207157,-237,-1178,409
1657206207197,-82,-971,526
1657206207237,-78,-867,458
1657206207277,-71,-858,448
1657206207317,17,-842,462
1657206207357,105,-881,449
1657206207397,149,-940,426
1657206207437,123,-968,431
1657206207477,164,-994,467
1657206207517,93,-1077,391
1657206207557,160,-1181,258
1657206207597,161,-1142,328
1657206207637,32,-1118,311
1657206207677,-24,-1056,292
1657206207717,-34,-819,287
1657206207757,-121,-744,268
1657206207797,-212,-793,240
1657206207837,-280,-877,223
1657206207877,-225,-938,284
1657206207917,-211,-1054,353
1657206207957,-227,-1224,361
1657206207997,-267,-1438,383
1657206208037,-350,-1595,361
1657206208077,-615,-1335,381
1657206208117,-414,-1283,321
1657206208157,-311,-1144,307
1657206208197,-158,-952,400
1657206208237,-77,-851,421
1657206208277,-54,-768,440
1657206208317,-15,-758,436
1657206208357,43,-775,402
1657206208397,81,-893,409
1657206208437,67,-1016,409
1657206208477,124,-1185,445
1657206208517,115,-1179,452
1657206208557,244,-1232,384
1657206208597,143,-1064,392
1657206208637,131,-1024,394
1657206208677,100,-986,297
1657206208717,-19,-821,326
1657206208757,-107,-740,291
1657206208797,-235,-798,252
1657206208837,-249,-889,252
1657206208877,-200,-952,276
1657206208917,-169,-1064,361
1657206208957,-252,-1265,326
1657206208997,-418,-1439,289
1657206209037,-551,-1513,296
1657206209077,-611,-1289,262
1657206209117,-335,-1332,246
1657206209157,-249,-1273,338
1657206209197,-139,-1084,563
1657206209237,-168,-1006,621
1657206209277,-157,-942,579
1657206209317,35,-880,513
1657206209357,103,-838,477
1657206209397,146,-860,463
1657206209437,187,-925,445
1657206209477,166,-991,467
1657206209517,125,-1053,413
1657206209557,253,-1179,235
1657206209597,214,-1173,313
1657206209637,92,-1215,324
1657206209677,-18,-1098,287
1657206209717,-146,-807,305
1657206209757,-202,-746,237
1657206209797,-215,-785,154
1657206209837,-221,-836,205
1657206209877,-201,-922,300
1657206209917,-258,-1050,300
1657206209957,-261,-1267,346
1657206209997,-371,-1483,418
1657206210037,-479,-1618,488
1657206210077,-701,-1481,373
1657206210117,-423,-1290,287
1657206210157,-192,-1130,331
1657206210197,-105,-973,367
1657206210237,-191,-853,415
1657206210277,-145,-805,447
1657206210317,-21,-784,407
1657206210357,38,-763,369
1657206210397,51,-836,379
1657206210437,50,-942,404
1657206210477,120,-1088,457
1657206210517,101,-1117,450
1657206210557,276,-1174,366
1657206210597,194,-1139,418
1657206210637,79,-1162,361
1657206210677,21,-1080,268
1657206210717,-97,-844,264
1657206210757,-189,-767,237
1657206210797,-249,-796,202
1657206210837,-247,-907,215
1657206210877,-237,-943,209
1657206210917,-177,-1005,262
1657206210957,-221,-1167,254
1657206210997,-241,-1357,299
1657206211037,-337,-1569,316
1657206211077,-612,-1468,293
1657206211117,-503,-1551,273
1657206211157,-326,-1331,380
1657206211197,-149,-1046,507
1657206211237,-126,-900,473
1657206211277,-74,-826,432
1657206211317,47,-770,441
1657206211357,133,-778,418
1657206211397,163,-873,395
1657206211437,166,-944,454
1657206211477,152,-1014,515
1657206211517,183,-1057,449
1657206211557,229,-1244,348
1657206211597,165,-1131,333
1657206211637,20,-1064,404
1657206211677,-3,-1018,310
1657206211717,-70,-827,294
1657206211757,-138,-793,271
1657206211797,-281,-903,162
1657206211837,-298,-997,82
1657206211877,-244,-1000,218
1657206211917,-173,-1033,291
1657206211957,-206,-1169,248
1657206211997,-178,-1415,262
1657206212037,-287,-1665,319
1657206212077,-617,-1439,309
1657206212117,-456,-1349,300
1657206212157,-222,-1218,284
1657206212197,-129,-1036,400
1657206212237,-102,-871,410
1657206212277,-43,-765,429
1657206212317,60,-726,438
1657206212357,111,-732,407
1657206212397,115,-859,436
1657206212437,160,-1045,463
1657206212477,138,-1110,472
1657206212517,146,-1131,490
1657206212557,176,-1162,376
1657206212597,121,-1066,374
1657206212637,33,-1060,385
1657206212677,-33,-1032,307
1657206212717,-68,-869,281
1657206212757,-143,-790,207
1657206212797,-253,-796,177
1657206212837,-239,-812,234
1657206212877,-204,-880,280
1657206212917,-175,-1020,298
1657206212957,-169,-1237,289
1657206212997,-244,-1356,347
1657206213037,-292,-1578,377
1657206213077,-547,-1460,315
1657206213117,-462,-1376,289
1657206213157,-256,-1172,376
1657206213197,-140,-980,484
1657206213237,-136,-818,473
1657206213277,-120,-785,468
1657206213317,-5,-825,432
1657206213357,50,-870,402
1657206213397,138,-941,442
1657206213437,127,-965,493
1657206213477,166,-1015,543
1657206213517,202,-1042,525
1657206213557,342,-1215,355
1657206213597,233,-1159,356
1657206213637,103,-1162,359
1657206213677,27,-1126,278
1657206213717,-129,-795,254
1657206213757,-183,-790,138
1657206213797,-242,-843,79
1657206213837,-236,-878,208
1657206213877,-131,-873,329
1657206213917,-126,-948,448
1657206213957,-153,-1111,416
1657206213997,-214,-1344,413
1657206214037,-334,-1698,470
1657206214077,-644,-1506,476
1657206214117,-501,-1332,454
1657206214157,-232,-1222,441
1657206214197,-94,-1030,466
1657206214237,-125,-811,488
1657206214277,-72,-747,449
1657206214317,56,-747,440
1657206214357,84,-769,419
1657206214397,68,-838,421
1657206214437,94,-988,490
1657206214477,42,-1102,543
1657206214517,118,-1251,509
1657206214557,275,-1155,360
1657206214597,282,-1020,393
1657206214637,253,-1051,333
1657206214677,67,-1019,308
1657206214717,-114,-875,264
1657206214757,-222,-833,187
1657206214797,-253,-789,200
1657206214837,-264,-866,196
1657206214877,-212,-901,167
1657206214917,-172,-973,289
1657206214957,-185,-1166,264
1657206214997,-211,-1488,268
1657206215037,-323,-1760,374
1657206215077,-742,-1487,408
1657206215117,-585,-1261,385
1657206215157,-194,-1149,359
1657206215197,-66,-991,374
1657206215237,-102,-833,401
1657206215277,-85,-787,413
1657206215317,-11,-766,408
1657206215357,48,-820,431
1657206215397,100,-901,450
1657206215437,102,-1042,515
1657206215477,119,-1089,533
1657206215517,214,-1173,534
1657206215557,323,-1260,407
1657206215597,299,-1205,426
1657206215637,53,-1164,375
1657206215677,-32,-948,305
1657206215717,-25,-688,297
1657206215757,-134,-664,208
1657206215797,-170,-720,149
1657206215837,-146,-779,276
1657206215877,-161,-913,383
1657206215917,-213,-1117,375
1657206215957,-367,-1287,340
1657206215997,-419,-1458,337
1657206216037,-463,-1659,343
1657206216077,-619,-1458,328
1657206216117,-470,-1437,315
1657206216157,-297,-1272,433
1657206216197,-120,-1060,578
1657206216237,-60,-872,560
1657206216277,-45,-806,495
1657206216317,45,-773,449
1657206216357,145,-774,426
1657206216397,202,-863,419
1657206216437,135,-990,459
1657206216477,94,-1080,559
1657206216517,184,-1110,520
1657206216557,321,-1287,433
1657206216597,262,-1121,439
1657206216637,229,-1170,419
1657206216677,111,-1154,333
1657206216717,78,-1044,394
1657206216757,-125,-903,349
1657206216797,-166,-859,264
1657206216837,-110,-840,217
1657206216877,-162,-839,212
1657206216917,-165,-882,276
1657206216957,-182,-1015,343
1657206216997,-300,-1315,324
1657206217037,-521,-1598,278
1657206217077,-671,-1709,337
1657206217117,-727,-1589,290
1657206217157,-299,-1438,338
1657206217197,-67,-1264,503
1657206217237,20,-1066,593
1657206217277,-21,-971,582
1657206217317,61,-911,487
1657206217357,159,-894,455
1657206217397,181,-812,400
1657206217437,160,-774,432
1657206217477,226,-882,460
1657206217517,229,-1027,516
1657206217557,223,-1149,538
1657206217597,341,-1241,452
1657206217637,168,-1162,493
1657206217677,53,-1164,410
1657206217717,18,-1112,324
1657206217757,-64,-919,330
1657206217797,-212,-918,258
1657206217837,-340,-959,230
1657206217877,-295,-986,262
1657206217917,-269,-1029,336
1657206217957,-261,-1052,319
1657206217997,-260,-1142,307
1657206218037,-315,-1291,253
1657206218077,-295,-1443,265
1657206218117,-441,-1398,300
1657206218157,-546,-1451,284
1657206218197,-377,-1336,373
1657206218237,-146,-1161,547
1657206218277,-45,-1021,560
1657206218317,-31,-972,513
1657206218357,40,-911,492
1657206218397,124,-839,485
1657206218437,154,-845,466
1657206218477,97,-864,444
1657206218517,98,-925,478
1657206218557,151,-985,473
1657206218597,188,-1095,403
1657206218637,214,-1089,225
1657206218677,90,-1152,324
1657206218717,122,-1188,262
1657206218757,16,-1101,308
1657206218797,-39,-919,346
1657206218837,-135,-878,359
1657206218877,-303,-937,272
1657206218917,-343,-969,278
1657206218957,-377,-1039,309
1657206218997,-307,-1142,358
1657206219037,-389,-1211,397
1657206219077,-464,-1212,356
1657206219117,-396,-1305,349
1657206219157,-439,-1288,327
1657206219197,-261,-1480,420
1657206219237,-365,-1362,508
1657206219277,-213,-1157,574
1657206219317,-165,-1015,613
1657206219357,-148,-944,565
1657206219397,-20,-876,507
1657206219437,44,-827,461
1657206219477,63,-830,428
1657206219517,126,-895,442
1657206219557,120,-896,477
1657206219597,174,-963,467
1657206219637,198,-1102,325
1657206219677,250,-1086,188
1657206219717,194,-1172,327
1657206219757,108,-1223,298
1657206219797,-19,-1072,324
1657206219837,-106,-887,326
1657206219877,-217,-924,298
1657206219917,-318,-1034,210
1657206219957,-384,-1041,262
1657206219997,-378,-1041,392
1657206220037,-301,-1075,393
1657206220077,-332,-1130,346
1657206220117,-356,-1217,325
1657206220157,-361,-1357,289
1657206220197,-529,-1307,269
1657206220237,-388,-1384,297
1657206220277,-255,-1330,412
1657206220317,-132,-1113,517
1657206220357,-124,-967,566
1657206220397,-68,-929,530
1657206220437,12,-843,473
1657206220477,106,-768,412
1657206220517,151,-746,382
1657206220557,129,-841,354
1657206220597,160,-954,387
1657206220637,146,-1090,416
1657206220677,167,-1351,343
1657206220717,200,-1288,351
1657206220757,39,-1212,450
1657206220797,24,-1139,374
1657206220837,-79,-922,291
1657206220877,-149,-770,225
1657206220917,-185,-799,185
1657206220957,-232,-865,239
1657206220997,-247,-958,291
1657206221037,-310,-1044,304
1657206221077,-367,-1126,301
1657206221117,-375,-1288,284
1657206221157,-437,-1299,297
1657206221197,-426,-1367,339
1657206221237,-260,-1337,352
1657206221277,-117,-1219,419
1657206221317,-52,-1102,435
1657206221357,-31,-973,453
1657206221397,-105,-812,480
1657206221437,-86,-704,440
1657206221477,-28,-699,377
1657206221517,-1,-778,360
1657206221557,76,-898,331
1657206221597,20,-1084,318
1657206221637,40,-1103,302
1657206221677,316,-1307,361
1657206221717,356,-1223,361
1657206221757,248,-1231,620
1657206221797,168,-1113,486
1657206221837,132,-843,284
1657206221877,-6,-776,211
1657206221917,-130,-792,158
1657206221957,-235,-839,211
1657206221997,-249,-905,243
1657206222037,-201,-965,257
1657206222077,-216,-1011,256
1657206222117,-240,-1088,227
1657206222157,-310,-1163,241
1657206222197,-291,-1436,235
1657206222237,-617,-1594,163
1657206222277,-590,-1572,355
1657206222317,-348,-1372,607
1657206222357,-161,-1133,620
1657206222397,-77,-1062,542
1657206222437,3,-1003,457
1657206222477,115,-888,449
1657206222517,231,-808,434
1657206222557,239,-786,392
1657206222597,214,-835,412
1657206222637,195,-864,394
1657206222677,131,-956,285
1657206222717,327,-1241,216
1657206222757,317,-1330,355
1657206222797,37,-1335,476
1657206222837,-75,-1229,389
1657206222877,-103,-948,334
1657206222917,-167,-896,242
1657206222957,-302,-970,135
1657206222997,-404,-944,183
1657206223037,-406,-949,236
1657206223077,-363,-1023,213
1657206223117,-277,-1107,243
1657206223157,-209,-1134,346
1657206223197,-200,-1346,343
1657206223237,-388,-1336,328
1657206223277,-366,-1426,352
1657206223317,-318,-1275,371
1657206223357,-242,-1110,503
1657206223397,-165,-1016,512
1657206223437,-144,-915,446
1657206223477,-18,-853,420
1657206223517,79,-793,357
1657206223557,128,-821,351
1657206223597,157,-909,374
1657206223637,115,-1080,442
1657206223677,141,-1131,445
1657206223717,277,-1325,353
1657206223757,155,-1066,333
1657206223797,181,-1119,384
1657206223837,151,-1153,224
1657206223877,-41,-909,291
1657206223917,-141,-763,232
1657206223957,-222,-813,181
1657206223997,-270,-893,200
1657206224037,-254,-924,285
1657206224077,-191,-990,391
1657206224117,-215,-1097,407
1657206224157,-181,-1205,379
1657206224197,-229,-1325,356
1657206224237,-308,-1399,324
1657206224277,-560,-1304,199
1657206224317,-463,-1342,153
1657206224357,-365,-1257,269
1657206224397,-248,-1073,438
1657206224437,-202,-914,551
1657206224477,-131,-911,529
1657206224517,-27,-857,469
1657206224557,45,-850,462
1657206224597,86,-905,443
1657206224637,103,-1049,500
1657206224677,143,-1085,494
1657206224717,244,-1088,494
1657206224757,381,-1131,378
1657206224797,292,-1005,409
1657206224837,140,-1062,406
1657206224877,92,-1051,334
1657206224917,-97,-881,298
1657206224957,-263,-860,178
1657206224997,-316,-867,106
1657206225037,-357,-917,140
1657206225077,-275,-976,210
1657206225117,-249,-1084,300
1657206225157,-176,-1198,395
1657206225197,-313,-1381,373
1657206225237,-375,-1508,364
1657206225277,-492,-1256,420
1657206225317,-346,-1213,340
1657206225357,-273,-1134,380
1657206225397,-180,-953,474
1657206225437,-180,-840,522
1657206225477,-135,-790,502
1657206225517,-29,-768,450
1657206225557,14,-782,412
1657206225597,65,-815,388
1657206225637,106,-914,438
1657206225677,97,-988,466
1657206225717,167,-1168,463
1657206225757,270,-1279,350
1657206225797,132,-1212,454
1657206225837,49,-1158,491
1657206225877,-34,-1073,345
1657206225917,-57,-852,325
1657206225957,-159,-764,283
1657206225997,-331,-809,248
1657206226037,-380,-801,277
1657206226077,-308,-835,312
1657206226117,-295,-911,300
1657206226157,-222,-1043,280
1657206226197,-167,-1209,294
1657206226237,-211,-1498,405
1657206226277,-411,-1382,441
1657206226317,-513,-1290,521
1657206226357,-322,-1261,385
1657206226397,-172,-1072,446
1657206226437,-141,-819,477
1657206226477,-122,-747,454
1657206226517,-89,-722,398
1657206226557,-13,-687,375
1657206226597,56,-729,346
1657206226637,77,-866,331
1657206226677,12,-1018,421
1657206226717,20,-1058,495
1657206226757,108,-1205,390
1657206226797,216,-1204,286
1657206226837,102,-1140,533
1657206226877,-5,-1088,515
1657206226917,-66,-968,410
1657206226957,-134,-789,315
1657206226997,-261,-773,175
1657206227037,-315,-811,142
1657206227077,-239,-815,285
1657206227117,-237,-888,345
1657206227157,-248,-988,311
1657206227197,-182,-1088,366
1657206227237,-208,-1270,371
1657206227277,-249,-1495,385
1657206227317,-470,-1357,418
1657206227357,-412,-1337,379
1657206227397,-273,-1170,417
1657206227437,-158,-922,487
1657206227477,-137,-766,461
1657206227517,-110,-758,426
1657206227557,-72,-710,393
1657206227597,-81,-710,398
1657206227637,-39,-791,405
1657206227677,-48,-833,399
1657206227717,-112,-931,438
1657206227757,-31,-1065,436
1657206227797,77,-1281,389
1657206227837,135,-1347,273
1657206227877,31,-1218,491
1657206227917,63,-1129,454
1657206227957,-66,-1003,297
1657206227997,-121,-746,267
1657206228037,-194,-663,210
1657206228077,-246,-690,165
1657206228117,-244,-820,177
1657206228157,-271,-885,303
1657206228197,-350,-1039,295
1657206228237,-333,-1157,296
1657206228277,-318,-1232,353
1657206228317,-298,-1281,350
1657206228357,-291,-1228,339
1657206228397,-355,-1259,293
1657206228437,-320,-1343,259
1657206228477,-309,-1139,459
1657206228517,-195,-972,538
1657206228557,-180,-855,478
1657206228597,-151,-814,412
1657206228637,-95,-790,380
1657206228677,-28,-794,377
1657206228717,58,-830,388
1657206228757,66,-913,407
1657206228797,72,-1057,388
1657206228837,99,-1132,380
1657206228877,89,-1278,290
1657206228917,112,-1153,267
1657206228957,160,-1164,412
1657206228997,120,-1137,414
1657206229037,-37,-924,426
1657206229077,-153,-776,374
1657206229117,-218,-772,264
1657206229157,-286,-816,251
1657206229197,-357,-862,294
1657206229237,-380,-954,278
1657206229277,-357,-1113,282
1657206229317,-342,-1217,254
1657206229357,-260,-1253,294
1657206229397,-192,-1353,322
1657206229437,-332,-1275,284
1657206229477,-316,-1388,291
1657206229517,-317,-1248,306
1657206229557,-192,-1076,425
1657206229597,-186,-920,507
1657206229637,-133,-859,504
1657206229677,-46,-818,494
1657206229717,-87,-792,502
1657206229757,-18,-850,427
1657206229797,42,-870,409
1657206229837,31,-976,445
1657206229877,109,-999,365
1657206229917,238,-1175,241
1657206229957,146,-1193,186
1657206229997,106,-1205,365
1657206230037,-11,-1198,317
1657206230077,-94,-939,282
1657206230117,-133,-760,275
1657206230157,-239,-868,287
1657206230197,-233,-864,264
1657206230237,-295,-939,321
1657206230277,-238,-1017,361
1657206230317,-256,-1114,356
1657206230357,-287,-1229,294
1657206230397,-408,-1286,286
1657206230437,-273,-1407,313
1657206230477,-377,-1239,352
1657206230517,-406,-1242,288
1657206230557,-388,-1189,289
1657206230597,-264,-1050,472
1657206230637,-239,-882,501
1657206230677,-170,-793,476
1657206230717,-26,-777,443
1657206230757,60,-776,414
1657206230797,30,-841,401
1657206230837,-11,-975,431
1657206230877,-20,-1024,505
1657206230917,200,-1177,466
1657206230957,373,-1289,316
1657206230997,243,-1210,430
1657206231037,204,-1252,353
1657206231077,104,-1087,245
1657206231117,-73,-832,210
1657206231157,-180,-815,143
1657206231197,-187,-819,185
1657206231237,-239,-863,271
1657206231277,-281,-864,353
1657206231317,-244,-924,366
1657206231357,-193,-1069,389
1657206231397,-253,-1234,340
1657206231437,-279,-1413,367
1657206231477,-522,-1518,247
1657206231517,-542,-1414,338
1657206231557,-347,-1286,349
1657206231597,-178,-1107,456
1657206231637,-48,-1014,512
1657206231677,-186,-842,521
1657206231717,-86,-761,508
1657206231757,-15,-779,481
1657206231797,-2,-783,465
1657206231837,38,-783,463
1657206231877,115,-893,475
1657206231917,-14,-1029,455
1657206231957,53,-1065,423
1657206231997,196,-1238,321
1657206232037,129,-1239,277
1657206232077,194,-1224,361
1657206232117,78,-1113,346
1657206232157,-17,-885,343
1657206232197,-82,-774,279
1657206232237,-202,-819,241
1657206232277,-349,-863,268
1657206232317,-302,-908,356
1657206232357,-291,-963,382
1657206232397,-261,-1050,372
1657206232437,-245,-1173,330
1657206232477,-318,-1301,288
1657206232517,-401,-1484,286
1657206232557,-606,-1384,284
1657206232597,-370,-1368,418
1657206232637,-285,-1199,476
1657206232677,-156,-1011,518
1657206232717,-150,-870,557
1657206232757,-117,-825,526
1657206232797,-28,-798,470
1657206232837,-10,-753,422
1657206232877,26,-758,388
1657206232917,10,-807,368
1657206232957,-6,-939,406
1657206232997,53,-1027,403
1657206233037,151,-1235,412
1657206233077,152,-1254,337
1657206233117,125,-1207,489
1657206233157,56,-1197,386
1657206233197,10,-1019,295
1657206233237,-68,-803,283
1657206233277,-166,-758,172
1657206233317,-201,-730,185
1657206233357,-226,-792,278
1657206233397,-252,-862,363
1657206233437,-222,-968,396
1657206233477,-197,-1091,350
1657206233517,-233,-1274,335
1657206233557,-401,-1417,250
1657206233597,-463,-1394,262
1657206233637,-537,-1388,281
1657206233677,-411,-1339,293
1657206233717,-319,-1125,431
1657206233757,-136,-962,497
1657206233797,-134,-863,521
1657206233837,-127,-796,524
1657206233877,-60,-743,476
1657206233917,0,-750,422
1657206233957,22,-775,417
1657206233997,31,-850,414
1657206234037,-43,-972,411
1657206234077,70,-1007,384
1657206234117,207,-1142,351
1657206234157,261,-1285,278
1657206234197,184,-1302,453
1657206234237,96,-1225,469
1657206234277,33,-1045,425
1657206234317,8,-807,398
1657206234357,-122,-750,354
1657206234397,-257,-760,306
1657206234437,-271,-774,331
1657206234477,-258,-843,404
1657206234517,-217,-1019,402
1657206234557,-244,-1200,345
1657206234597,-365,-1289,327
1657206234637,-374,-1232,392
1657206234677,-417,-1377,276
1657206234717,-546,-1459,180
1657206234757,-425,-1379,351
1657206234797,-303,-1180,525
1657206234837,-87,-1027,541
1657206234877,-74,-912,555
1657206234917,-47,-810,571
1657206234957,49,-733,523
1657206234997,78,-658,460
1657206235037,152,-705,399
1657206235077,212,-889,410
1657206235117,43,-959,490
1657206235157,124,-1067,548
1657206235197,335,-1454,452
1657206235237,193,-1364,483
1657206235277,131,-1366,494
1657206235317,65,-1209,385
1657206235357,28,-876,263
1657206235397,-53,-735,192
1657206235437,-158,-774,168
1657206235477,-272,-755,249
1657206235517,-291,-792,336
1657206235557,-299,-875,272
1657206235597,-267,-966,270
1657206235637,-286,-1165,238
1657206235677,-297,-1350,290
1657206235717,-287,-1697,369
1657206235757,-655,-1556,400
1657206235797,-459,-1274,518
1657206235837,-160,-1154,569
1657206235877,-169,-929,592
1657206235917,-129,-747,525
1657206235957,-103,-774,413
1657206235997,-95,-851,346
1657206236037,3,-988,393
1657206236077,63,-1118,423
1657206236117,58,-1243,466
1657206236157,176,-1210,418
1657206236197,372,-1145,388
1657206236237,436,-1075,372
1657206236277,267,-1022,516
1657206236317,58,-936,553
1657206236357,-46,-833,429
1657206236397,-163,-846,307
1657206236437,-329,-853,281
1657206236477,-497,-876,293
1657206236517,-470,-922,304
1657206236557,-447,-932,288
1657206236597,-407,-1074,264
1657206236637,-478,-1249,190
1657206236677,-431,-1424,243
1657206236717,-433,-1519,297
1657206236757,-528,-1506,365
1657206236797,-346,-1420,362
1657206236837,-131,-1137,462
1657206236877,-59,-883,574
1657206236917,-73,-744,574
1657206236957,-124,-753,573
1657206236997,-76,-791,547
1657206237037,-117,-845,493
1657206237077,-188,-907,496
1657206237117,-161,-980,502
1657206237157,-217,-1035,538
1657206237197,-57,-985,480
1657206237237,-109,-1068,458
1657206237277,-239,-1259,394
1657206237317,-869,-1485,504
1657206237357,-1460,-1647,489
1657206237397,-1344,-1369,-243
1657206237437,-1004,-1186,-1021
