timestamp,accel_X,accel_Y,accel_Z
1657206335397,-464,116,928
1657206335437,-454,116,893
1657206335477,-465,126,904
1657206335517,-452,124,903
1657206335557,-457,137,944
1657206335597,-468,126,923
1657206335637,-469,122,905
1657206335677,-467,116,899
1657206335717,-464,120,915
1657206335757,-459,139,932
1657206335797,-444,133,911
1657206335837,-459,130,909
1657206335877,-462,123,917
1657206335917,-457,120,911
1657206335957,-457,115,902
1657206335997,-454,126,908
1657206336037,-461,125,920
1657206336077,-468,124,915
1657206336117,-457,131,909
1657206336157,-446,148,923
1657206336197,-461,132,913
1657206336237,-483,129,930
1657206336277,-454,128,907
1657206336317,-456,118,910
1657206336357,-447,125,921
1657206336397,-442,123,896
1657206336437,-436,114,894
1657206336477,-481,125,937
1657206336517,-457,109,892
1657206336557,-453,121,900
1657206336597,-468,120,924
1657206336637,-476,118,940
1657206336677,-485,100,930
1657206336717,-486,93,926
1657206336757,-447,91,911
1657206336797,-428,101,910
1657206336837,-435,96,931
1657206336877,-459,86,930
1657206336917,-487,66,910
1657206336957,-498,59,917
1657206336997,-494,50,922
1657206337037,-478,57,939
1657206337077,-446,54,901
1657206337117,-436,66,894
1657206337157,-421,94,890
1657206337197,-417,124,914
1657206337237,-443,130,940
1657206337277,-480,122,968
1657206337317,-494,100,949
1657206337357,-490,89,913
1657206337397,-461,84,891
1657206337437,-442,100,924
1657206337477,-436,91,918
1657206337517,-439,79,914
1657206337557,-459,80,936
1657206337597,-470,73,945
1657206337637,-461,69,908
1657206337677,-464,72,879
1657206337717,-457,74,887
1657206337757,-455,96,928
1657206337797,-446,107,936
1657206337837,-448,103,934
1657206337877,-445,94,896
1657206337917,-456,100,904
1657206337957,-467,100,929
1657206337997,-479,106,937
1657206338037,-473,89,913
1657206338077,-458,90,922
1657206338117,-444,91,903
1657206338157,-436,109,933
1657206338197,-446,108,935
1657206338237,-463,121,930
1657206338277,-549,73,973
1657206338317,-764,78,1026
1657206338357,-937,56,976
1657206338397,-1196,175,802
1657206338437,-1225,74,516
1657206338477,-902,-207,-24
1657206338517,-545,-328,-370
1657206338557,-565,-393,-474
1657206338597,-521,-436,-482
1657206338637,-449,-395,-496
1657206338677,-143,-640,-646
1657206338717,-43,-740,-869
1657206338757,-97,-624,-701
1657206338797,106,-598,-794
1657206338837,11,-631,-763
1657206338877,12,-604,-793
1657206338917,-183,-621,-717
1657206338957,-534,-873,-733
1657206338997,-750,-699,-861
1657206339037,-378,-426,-870
1657206339077,-331,-333,-643
1657206339117,-372,-195,-511
1657206339157,-436,-79,-354
1657206339197,-695,-199,-382
1657206339237,-797,-414,-519
1657206339277,-1071,-582,-401
1657206339317,-1005,-425,-256
1657206339357,-1107,-604,-213
1657206339397,-1068,-690,-326
1657206339437,-937,-736,-404
1657206339477,-848,-689,-426
1657206339517,-812,-636,-375
1657206339557,-786,-580,-349
1657206339597,-746,-509,-317
1657206339637,-769,-466,-302
1657206339677,-814,-481,-315
1657206339717,-649,-643,-472
1657206339757,-923,-542,-316
1657206339797,-818,-424,-258
1657206339837,-911,-520,-151
1657206339877,-974,-466,9
1657206339917,-932,-384,130
1657206339957,-943,-306,241
1657206339997,-932,-252,306
1657206340037,-866,-286,275
1657206340077,-915,-352,349
1657206340117,-937,-325,402
1657206340157,-959,-254,406
1657206340197,-963,-368,500
1657206340237,-886,-301,441
1657206340277,-865,-336,379
1657206340317,-874,-351,430
1657206340357,-865,-304,438
1657206340397,-895,-335,407
1657206340437,-890,-336,412
1657206340477,-892,-337,407
1657206340517,-866,-333,394
1657206340557,-855,-295,423
1657206340597,-871,-320,430
1657206340637,-849,-310,434
1657206340677,-899,-349,420
1657206340717,-939,-371,402
1657206340757,-928,-373,374
1657206340797,-905,-378,352
1657206340837,-895,-362,382
1657206340877,-857,-340,353
1657206340917,-852,-322,375
1657206340957,-861,-333,393
1657206340997,-876,-343,409
1657206341037,-868,-347,399
1657206341077,-841,-281,358
1657206341117,-832,-403,398
1657206341157,-979,-534,404
1657206341197,-939,-472,349
1657206341237,-933,-563,347
1657206341277,-913,-569,276
1657206341317,-799,-475,283
1657206341357,-845,-496,257
1657206341397,-861,-490,256
1657206341437,-888,-502,205
1657206341477,-937,-483,239
1657206341517,-908,-445,175
1657206341557,-936,-415,170
1657206341597,-936,-429,133
1657206341637,-961,-448,88
1657206341677,-937,-441,58
1657206341717,-893,-377,66
1657206341757,-931,-423,40
1657206341797,-885,-330,55
1657206341837,-880,-310,68
1657206341877,-860,-418,21
1657206341917,-841,-442,72
1657206341957,-634,-405,117
1657206341997,-365,-472,90
1657206342037,-250,-615,2
1657206342077,-183,-711,75
1657206342117,-50,-781,141
1657206342157,-132,-1044,276
1657206342197,-193,-1134,521
1657206342237,-178,-1315,832
1657206342277,-454,-1574,1118
1657206342317,-711,-1504,1071
1657206342357,-714,-1236,1065
1657206342397,-713,-1051,893
1657206342437,-493,-1004,572
1657206342477,-428,-961,347
1657206342517,-413,-924,322
1657206342557,-356,-1006,396
1657206342597,-343,-1121,459
1657206342637,-398,-1094,599
1657206342677,-416,-1113,798
1657206342717,-240,-1110,965
1657206342757,-398,-867,1179
1657206342797,-357,-968,1183
1657206342837,-151,-1126,825
1657206342877,-154,-1149,659
1657206342917,-267,-996,464
1657206342957,-375,-794,406
1657206342997,-382,-623,274
1657206343037,-240,-442,130
1657206343077,-306,-346,46
1657206343117,-269,-340,-11
1657206343157,-242,-374,-39
1657206343197,-350,-538,33
1657206343237,-490,-666,125
1657206343277,-307,-654,204
1657206343317,-212,-819,293
1657206343357,-355,-1086,382
1657206343397,-224,-1196,472
1657206343437,-156,-1521,690
1657206343477,-578,-1799,793
1657206343517,-833,-1605,887
1657206343557,-614,-1247,830
1657206343597,-268,-984,500
1657206343637,-154,-920,242
1657206343677,-46,-879,208
1657206343717,-15,-883,211
1657206343757,-78,-872,268
1657206343797,-216,-833,391
1657206343837,-366,-905,377
1657206343877,-322,-889,374
1657206343917,-260,-889,311
1657206343957,-277,-925,267
1657206343997,-234,-895,262
1657206344037,-205,-857,320
1657206344077,-277,-919,318
1657206344117,-340,-929,380
1657206344157,-371,-938,390
1657206344197,-488,-963,396
1657206344237,-449,-971,387
1657206344277,-514,-979,410
1657206344317,-683,-1019,446
1657206344357,-717,-953,522
1657206344397,-806,-981,568
1657206344437,-786,-979,565
1657206344477,-876,-1051,485
1657206344517,-817,-775,453
1657206344557,-819,-890,239
1657206344597,-528,-638,-70
1657206344637,-331,-159,-15
1657206344677,-528,-293,-213
1657206344717,-361,-244,-221
1657206344757,-634,-249,-183
1657206344797,-704,-311,-298
1657206344837,-676,-264,-390
1657206344877,-844,-504,-522
1657206344917,-802,-442,-575
1657206344957,-744,-455,-615
1657206344997,-801,-395,-539
1657206345037,-677,-471,-604
1657206345077,-719,-405,-568
1657206345117,-696,-391,-558
1657206345157,-770,-598,-610
1657206345197,-754,-579,-533
1657206345237,-786,-440,-507
1657206345277,-695,-537,-565
1657206345317,-701,-416,-604
1657206345357,-718,-504,-547
1657206345397,-687,-485,-628
1657206345437,-645,-464,-585
1657206345477,-726,-445,-594
1657206345517,-677,-588,-599
1657206345557,-699,-470,-555
1657206345597,-701,-482,-560
1657206345637,-594,-371,-582
1657206345677,-731,-622,-780
1657206345717,-633,-575,-557
1657206345757,-823,-828,-633
1657206345797,-693,-397,-363
1657206345837,-761,-569,-394
1657206345877,-667,-319,-364
1657206345917,-594,-182,-320
1657206345957,-630,-425,-531
1657206345997,-826,-494,-564
1657206346037,-990,-535,-473
1657206346077,-853,-555,-403
1657206346117,-693,-510,-382
1657206346157,-667,-481,-314
1657206346197,-637,-471,-236
1657206346237,-664,-568,-156
1657206346277,-493,-572,14
1657206346317,-433,-747,190
1657206346357,-719,-1056,78
1657206346397,-556,-922,56
1657206346437,-406,-878,220
1657206346477,-296,-908,238
1657206346517,-312,-938,229
1657206346557,-166,-996,288
1657206346597,-149,-1017,365
1657206346637,-137,-1127,471
1657206346677,-158,-1154,510
1657206346717,-179,-1241,560
1657206346757,-127,-1366,596
1657206346797,-188,-1218,621
1657206346837,-310,-1055,537
1657206346877,-325,-953,386
1657206346917,-188,-953,334
1657206346957,-12,-976,348
1657206346997,62,-960,360
1657206347037,24,-886,354
1657206347077,20,-843,302
1657206347117,50,-799,288
1657206347157,90,-781,286
1657206347197,6,-813,295
1657206347237,-46,-859,310
1657206347277,-75,-881,307
1657206347317,-95,-951,307
1657206347357,-108,-1008,320
1657206347397,-132,-1015,363
1657206347437,-105,-1017,417
1657206347477,-17,-1221,470
1657206347517,-159,-1271,461
1657206347557,-409,-1097,476
1657206347597,-405,-923,422
1657206347637,-185,-891,398
1657206347677,-31,-881,383
1657206347717,-59,-945,424
1657206347757,-90,-893,548
1657206347797,-69,-883,625
1657206347837,-38,-867,608
1657206347877,-27,-918,541
1657206347917,-119,-922,525
1657206347957,-93,-855,491
1657206347997,-89,-854,443
1657206348037,-119,-849,366
1657206348077,-104,-857,377
1657206348117,-83,-887,347
1657206348157,-65,-977,330
1657206348197,41,-1189,384
1657206348237,84,-1212,406
1657206348277,-122,-983,483
1657206348317,-68,-892,453
1657206348357,52,-878,347
1657206348397,19,-839,398
1657206348437,-42,-814,442
1657206348477,-67,-816,433
1657206348517,-95,-811,416
1657206348557,-94,-823,409
1657206348597,-143,-895,394
1657206348637,-176,-980,388
1657206348677,-181,-1039,402
1657206348717,-154,-1042,418
1657206348757,-26,-1028,461
1657206348797,60,-1109,548
1657206348837,-58,-1056,587
1657206348877,-293,-1039,592
1657206348917,-303,-1108,496
1657206348957,-202,-994,639
1657206348997,31,-863,389
1657206349037,75,-796,536
1657206349077,151,-740,513
1657206349117,14,-734,585
1657206349157,-15,-780,506
1657206349197,-55,-827,422
1657206349237,-78,-963,421
1657206349277,-120,-997,422
1657206349317,-109,-963,471
1657206349357,6,-910,474
1657206349397,-15,-900,466
1657206349437,78,-1065,413
1657206349477,132,-1083,392
1657206349517,-62,-899,569
1657206349557,-41,-828,615
1657206349597,14,-885,475
1657206349637,-49,-856,479
1657206349677,-61,-825,486
1657206349717,-38,-839,449
1657206349757,-66,-892,393
1657206349797,-61,-934,352
1657206349837,-65,-991,357
1657206349877,-124,-974,345
1657206349917,-18,-1027,323
1657206349957,5,-1026,372
1657206349997,17,-1058,481
1657206350037,44,-1149,519
1657206350077,-143,-1109,529
1657206350117,-205,-1004,500
1657206350157,-107,-924,420
1657206350197,4,-982,420
1657206350237,24,-922,489
1657206350277,-9,-849,558
1657206350317,15,-801,509
1657206350357,55,-834,475
1657206350397,-13,-828,426
1657206350437,94,-857,453
1657206350477,135,-955,438
1657206350517,-23,-1026,493
1657206350557,-17,-971,518
1657206350597,68,-997,454
1657206350637,144,-1225,400
1657206350677,30,-1007,364
1657206350717,-25,-876,416
1657206350757,37,-930,342
1657206350797,-2,-960,392
1657206350837,-98,-856,379
1657206350877,-130,-869,349
1657206350917,-152,-869,297
1657206350957,-138,-876,309
1657206350997,-87,-904,322
1657206351037,-45,-955,363
1657206351077,-73,-991,386
1657206351117,-91,-1015,338
1657206351157,-37,-1081,332
1657206351197,-70,-1113,361
1657206351237,-104,-1153,414
1657206351277,-250,-1147,440
1657206351317,-359,-1155,440
1657206351357,-190,-1090,459
1657206351397,22,-1074,515
1657206351437,37,-913,503
1657206351477,-30,-782,523
1657206351517,31,-787,535
1657206351557,-7,-814,489
1657206351597,-38,-869,525
1657206351637,16,-851,474
1657206351677,53,-861,509
1657206351717,67,-889,462
1657206351757,105,-958,426
1657206351797,244,-1186,318
1657206351837,309,-1165,245
1657206351877,-49,-1007,456
1657206351917,-41,-1087,453
1657206351957,-15,-1090,314
1657206351997,-102,-881,375
1657206352037,-164,-760,288
1657206352077,-148,-786,248
1657206352117,-79,-852,274
1657206352157,-86,-863,339
1657206352197,-119,-920,420
1657206352237,-139,-978,443
1657206352277,-121,-1046,470
1657206352317,-130,-1123,450
1657206352357,-157,-1168,414
1657206352397,-180,-1291,363
1657206352437,-430,-1254,301
1657206352477,-547,-1117,286
1657206352517,-376,-1103,303
1657206352557,-138,-1070,404
1657206352597,-80,-1085,527
1657206352637,-149,-956,598
1657206352677,-41,-901,618
1657206352717,17,-861,580
1657206352757,26,-856,572
1657206352797,45,-896,561
1657206352837,112,-966,585
1657206352877,169,-1028,587
1657206352917,211,-1040,495
1657206352957,63,-1186,254
1657206352997,48,-968,231
1657206353037,204,-941,259
1657206353077,61,-926,253
1657206353117,-167,-854,136
1657206353157,-188,-793,66
1657206353197,-210,-796,99
1657206353237,-183,-872,209
1657206353277,-187,-985,368
1657206353317,-259,-1030,491
1657206353357,-351,-1055,532
1657206353397,-250,-1085,507
1657206353437,-246,-1168,481
1657206353477,-220,-1398,431
1657206353517,-436,-1394,341
1657206353557,-649,-1176,334
1657206353597,-479,-1003,343
1657206353637,-344,-1069,456
1657206353677,-437,-1099,729
1657206353717,-591,-1249,1106
1657206353757,-655,-1279,1264
1657206353797,-1053,-1590,1243
1657206353837,-761,-1520,990
1657206353877,-872,-1526,695
1657206353917,-656,-1361,424
1657206353957,-469,-842,167
1657206353997,-675,-705,-209
1657206354037,-737,-237,-158
1657206354077,-461,-10,-293
1657206354117,-640,283,201
1657206354157,-603,232,74
1657206354197,-595,401,268
1657206354237,-488,481,19
1657206354277,-312,507,-69
1657206354317,-204,548,-122
1657206354357,-497,431,-27
1657206354397,-234,769,74
1657206354437,-356,791,4
1657206354477,-546,719,55
1657206354517,-647,744,102
1657206354557,-471,754,-11
1657206354597,-462,726,481
1657206354637,-122,587,248
1657206354677,-128,385,2
1657206354717,-358,389,-156
1657206354757,-484,248,-114
1657206354797,-536,57,104
1657206354837,-464,-232,144
1657206354877,-590,-404,244
1657206354917,-685,-769,402
1657206354957,-1198,-743,543
1657206354997,-1049,-1148,735
1657206355037,-1593,-1550,660
1657206355077,-1112,-1013,395
1657206355117,-351,-1206,282
1657206355157,-257,-1396,31
1657206355197,-125,-1815,544
1657206355237,-448,-1714,865
1657206355277,-627,-1246,978
1657206355317,-353,-1130,660
1657206355357,-45,-975,257
1657206355397,-115,-712,194
1657206355437,-127,-615,243
1657206355477,-134,-623,166
1657206355517,-105,-689,179
1657206355557,-132,-840,191
1657206355597,-69,-924,240
1657206355637,-154,-954,352
1657206355677,-150,-1094,327
1657206355717,-119,-1280,358
1657206355757,-218,-1321,365
1657206355797,-490,-1172,296
1657206355837,-620,-1101,257
1657206355877,-486,-1025,306
1657206355917,-244,-979,385
1657206355957,-192,-883,432
1657206355997,-164,-820,449
1657206356037,-124,-833,444
1657206356077,-95,-892,426
1657206356117,-53,-905,415
1657206356157,15,-973,445
1657206356197,15,-965,477
1657206356237,45,-1051,461
1657206356277,35,-1106,361
1657206356317,153,-1314,302
1657206356357,-86,-1134,194
1657206356397,-288,-950,256
1657206356437,-144,-944,208
1657206356477,-136,-873,233
1657206356517,-216,-754,286
1657206356557,-257,-728,298
1657206356597,-250,-793,319
1657206356637,-214,-817,379
1657206356677,-248,-855,397
1657206356717,-266,-926,329
1657206356757,-250,-1031,306
1657206356797,-229,-1184,308
1657206356837,-241,-1408,368
1657206356877,-448,-1387,374
1657206356917,-671,-1166,328
1657206356957,-475,-1041,319
1657206356997,-209,-997,357
1657206357037,-94,-919,372
1657206357077,-107,-782,419
1657206357117,-78,-753,459
1657206357157,-68,-801,416
1657206357197,-38,-818,452
1657206357237,-50,-872,463
1657206357277,-36,-929,474
1657206357317,-34,-1078,435
1657206357357,-62,-1085,360
1657206357397,13,-1217,328
1657206357437,33,-1190,219
1657206357477,-272,-947,310
1657206357517,-191,-933,289
1657206357557,-72,-945,248
1657206357597,-188,-784,294
1657206357637,-253,-738,248
1657206357677,-259,-755,218
1657206357717,-221,-831,244
1657206357757,-179,-908,286
1657206357797,-248,-974,281
1657206357837,-249,-1050,300
1657206357877,-218,-1181,332
1657206357917,-240,-1389,383
1657206357957,-458,-1288,378
1657206357997,-658,-1047,335
1657206358037,-379,-965,304
1657206358077,-144,-1001,303
1657206358117,-93,-930,295
1657206358157,-136,-810,422
1657206358197,-105,-762,453
1657206358237,-99,-810,452
1657206358277,-64,-871,444
1657206358317,-50,-911,450
1657206358357,-6,-1003,403
1657206358397,32,-1123,378
1657206358437,30,-1176,353
1657206358477,37,-1212,334
1657206358517,-227,-949,362
1657206358557,-209,-967,297
1657206358597,-75,-986,249
1657206358637,-204,-866,263
1657206358677,-233,-790,208
1657206358717,-210,-747,211
1657206358757,-199,-767,211
1657206358797,-133,-833,244
1657206358837,-146,-867,300
1657206358877,-190,-926,304
1657206358917,-191,-1058,282
1657206358957,-221,-1234,293
1657206358997,-187,-1378,396
1657206359037,-402,-1292,423
1657206359077,-624,-1082,338
1657206359117,-360,-1000,278
1657206359157,-170,-984,283
1657206359197,-160,-886,323
1657206359237,-153,-762,418
1657206359277,-79,-784,447
1657206359317,-88,-833,424
1657206359357,-70,-840,493
1657206359397,-39,-928,485
1657206359437,-25,-1028,472
1657206359477,12,-1114,446
1657206359517,7,-1155,332
1657206359557,137,-1304,295
1657206359597,-127,-1009,353
1657206359637,-245,-914,322
1657206359677,-45,-981,171
1657206359717,-56,-849,237
1657206359757,-140,-759,241
1657206359797,-180,-765,204
1657206359837,-174,-790,246
1657206359877,-154,-858,287
1657206359917,-155,-896,305
1657206359957,-207,-940,312
1657206359997,-174,-1039,284
1657206360037,-147,-1166,322
1657206360077,-180,-1340,387
1657206360117,-367,-1319,384
1657206360157,-593,-1169,308
1657206360197,-489,-1050,248
1657206360237,-273,-991,298
1657206360277,-130,-952,331
1657206360317,-163,-843,376
1657206360357,-89,-783,437
1657206360397,-67,-800,411
1657206360437,-75,-821,438
1657206360477,-61,-903,450
1657206360517,-37,-936,460
1657206360557,31,-972,492
1657206360597,42,-1044,433
1657206360637,95,-1224,390
1657206360677,143,-1268,350
1657206360717,-242,-1067,426
1657206360757,-250,-1036,269
1657206360797,12,-967,180
1657206360837,6,-797,221
1657206360877,-39,-698,223
1657206360917,-88,-757,269
1657206360957,-116,-866,298
1657206360997,-16,-901,274
1657206361037,45,-900,294
1657206361077,-35,-867,322
1657206361117,-31,-943,374
1657206361157,-94,-1114,385
1657206361197,-267,-1353,299
1657206361237,-494,-1496,253
1657206361277,-846,-1426,229
1657206361317,-820,-1311,131
1657206361357,-425,-1228,224
1657206361397,-139,-1130,360
1657206361437,-65,-1036,454
1657206361477,-27,-928,541
1657206361517,24,-871,549
1657206361557,58,-882,532
1657206361597,47,-876,531
1657206361637,62,-969,521
1657206361677,80,-1021,480
1657206361717,167,-1085,498
1657206361757,262,-1221,431
1657206361797,313,-1133,321
1657206361837,4,-946,346
1657206361877,72,-1018,257
1657206361917,9,-935,282
1657206361957,-103,-775,342
1657206361997,-225,-800,310
1657206362037,-226,-860,296
1657206362077,-223,-949,321
1657206362117,-227,-1049,321
1657206362157,-263,-1150,358
1657206362197,-381,-1171,297
1657206362237,-328,-1212,308
1657206362277,-332,-1301,243
1657206362317,-323,-1382,231
1657206362357,-452,-1286,238
1657206362397,-530,-1172,189
1657206362437,-312,-1099,278
1657206362477,-114,-1056,412
1657206362517,-39,-1068,486
1657206362557,-115,-939,566
1657206362597,-3,-849,612
1657206362637,71,-835,591
1657206362677,60,-847,560
1657206362717,71,-911,526
1657206362757,105,-1003,506
1657206362797,100,-1022,471
1657206362837,292,-1122,393
1657206362877,375,-1058,247
1657206362917,216,-1152,219
1657206362957,80,-1258,230
1657206362997,-58,-1061,197
1657206363037,-121,-849,144
1657206363077,-192,-728,165
1657206363117,-102,-764,169
1657206363157,-29,-843,173
1657206363197,-113,-909,342
1657206363237,-132,-1059,348
1657206363277,-305,-1188,315
1657206363317,-324,-1297,289
1657206363357,-344,-1405,299
1657206363397,-334,-1482,253
1657206363437,-356,-1316,215
1657206363477,-389,-1177,179
1657206363517,-242,-1095,256
1657206363557,47,-1057,350
1657206363597,18,-995,431
1657206363637,-115,-917,530
1657206363677,-118,-912,526
1657206363717,-63,-881,523
1657206363757,0,-876,539
1657206363797,17,-904,522
1657206363837,37,-926,509
1657206363877,86,-965,483
1657206363917,150,-1003,422
1657206363957,150,-1107,335
1657206363997,297,-1163,195
1657206364037,78,-953,314
1657206364077,12,-959,334
1657206364117,7,-1046,248
1657206364157,-73,-911,306
1657206364197,-173,-852,350
1657206364237,-291,-863,324
1657206364277,-379,-917,260
1657206364317,-265,-1014,272
1657206364357,-229,-1108,300
1657206364397,-333,-1134,270
1657206364437,-285,-1166,310
1657206364477,-297,-1328,311
1657206364517,-266,-1479,334
1657206364557,-449,-1284,368
1657206364597,-487,-1049,339
1657206364637,-244,-1034,295
1657206364677,29,-1054,289
1657206364717,18,-978,381
1657206364757,-125,-945,488
1657206364797,-138,-910,530
1657206364837,-60,-864,557
1657206364877,-33,-838,562
1657206364917,-19,-831,523
1657206364957,23,-859,479
1657206364997,75,-914,445
1657206365037,121,-982,391
1657206365077,128,-1042,327
1657206365117,175,-1206,219
1657206365157,34,-1122,233
1657206365197,-159,-919,277
1657206365237,-110,-961,288
1657206365277,-49,-1014,308
1657206365317,-126,-930,376
1657206365357,-252,-906,355
1657206365397,-327,-985,272
1657206365437,-313,-983,252
1657206365477,-264,-1014,262
1657206365517,-236,-1005,263
1657206365557,-202,-1041,273
1657206365597,-170,-1079,273
1657206365637,-162,-1200,305
1657206365677,-228,-1314,252
1657206365717,-378,-1239,270
1657206365757,-352,-1173,265
1657206365797,-209,-1124,326
1657206365837,-82,-1112,421
1657206365877,-72,-1006,461
1657206365917,-85,-881,525
1657206365957,-37,-854,513
1657206365997,-17,-800,487
1657206366037,41,-762,471
1657206366077,95,-763,454
1657206366117,93,-855,447
1657206366157,61,-929,406
1657206366197,104,-1031,387
1657206366237,135,-1157,322
1657206366277,164,-1323,327
1657206366317,-130,-1112,325
1657206366357,-205,-1036,323
1657206366397,-39,-1063,249
1657206366437,-107,-917,312
1657206366477,-194,-798,304
1657206366517,-284,-821,212
1657206366557,-294,-838,178
1657206366597,-246,-911,236
1657206366637,-214,-966,262
1657206366677,-255,-981,327
1657206366717,-201,-1031,338
1657206366757,-148,-1168,343
1657206366797,-91,-1336,409
1657206366837,-198,-1379,488
1657206366877,-506,-1178,443
1657206366917,-524,-1009,333
1657206366957,-277,-1005,269
1657206366997,-53,-1003,282
1657206367037,-100,-921,393
1657206367077,-82,-843,501
1657206367117,-17,-834,554
1657206367157,30,-860,532
1657206367197,43,-859,535
1657206367237,38,-888,498
1657206367277,56,-941,452
1657206367317,79,-1015,415
1657206367357,159,-1058,355
1657206367397,196,-1249,279
1657206367437,25,-1078,318
1657206367477,-192,-931,361
1657206367517,-130,-998,322
1657206367557,-123,-970,301
1657206367597,-179,-863,352
1657206367637,-238,-844,287
1657206367677,-227,-833,246
1657206367717,-177,-893,305
1657206367757,-142,-973,336
1657206367797,-195,-985,370
1657206367837,-223,-1008,339
1657206367877,-222,-1067,298
1657206367917,-225,-1201,288
1657206367957,-284,-1309,287
1657206367997,-469,-1240,284
1657206368037,-437,-1187,308
1657206368077,-232,-1170,376
1657206368117,-186,-1108,449
1657206368157,-167,-956,488
1657206368197,-84,-865,507
1657206368237,0,-822,491
1657206368277,54,-797,480
1657206368317,77,-790,467
1657206368357,56,-813,447
1657206368397,77,-881,441
1657206368437,138,-953,428
1657206368477,170,-1110,427
1657206368517,197,-1338,365
1657206368557,-36,-1155,389
1657206368597,-308,-1028,310
1657206368637,-143,-1086,230
1657206368677,-118,-958,244
1657206368717,-215,-838,244
1657206368757,-210,-813,227
1657206368797,-206,-815,269
1657206368837,-197,-863,274
1657206368877,-167,-915,287
1657206368917,-186,-974,306
1657206368957,-201,-1002,292
1657206368997,-189,-1077,287
1657206369037,-173,-1195,312
1657206369077,-141,-1361,374
1657206369117,-386,-1314,369
1657206369157,-492,-1163,339
1657206369197,-251,-1076,341
1657206369237,-106,-976,387
1657206369277,-39,-898,410
1657206369317,-62,-822,436
1657206369357,-4,-764,449
1657206369397,45,-794,450
1657206369437,20,-877,475
1657206369477,10,-915,485
1657206369517,41,-935,493
1657206369557,94,-983,448
1657206369597,120,-1076,401
1657206369637,82,-1220,310
1657206369677,40,-1106,314
1657206369717,-114,-951,362
1657206369757,-110,-997,328
1657206369797,-127,-1008,284
1657206369837,-160,-877,283
1657206369877,-178,-828,254
1657206369917,-210,-806,250
1657206369957,-164,-833,281
1657206369997,-137,-895,307
1657206370037,-167,-970,310
1657206370077,-239,-1004,304
1657206370117,-216,-1073,306
1657206370157,-180,-1200,345
1657206370197,-169,-1296,399
1657206370237,-287,-1241,422
1657206370277,-449,-1183,330
1657206370317,-381,-1116,270
1657206370357,-187,-1056,356
1657206370397,-85,-1002,410
1657206370437,-116,-875,473
1657206370477,-31,-781,517
1657206370517,36,-768,499
1657206370557,30,-811,502
1657206370597,5,-837,500
1657206370637,13,-914,521
1657206370677,68,-998,502
1657206370717,121,-1062,454
1657206370757,158,-1185,372
1657206370797,206,-1214,271
1657206370837,-68,-969,307
1657206370877,-120,-905,313
1657206370917,-15,-973,207
1657206370957,-69,-866,291
1657206370997,-154,-825,269
1657206371037,-204,-835,266
1657206371077,-241,-885,293
1657206371117,-241,-960,313
1657206371157,-230,-1046,349
1657206371197,-308,-1059,346
1657206371237,-244,-1118,336
1657206371277,-272,-1235,336
1657206371317,-186,-1358,358
1657206371357,-327,-1236,414
1657206371397,-471,-1108,349
1657206371437,-233,-1060,355
1657206371477,-29,-1060,416
1657206371517,-57,-897,439
1657206371557,-29,-805,505
1657206371597,20,-776,474
1657206371637,45,-800,485
1657206371677,15,-870,469
1657206371717,47,-900,495
1657206371757,107,-936,504
1657206371797,128,-969,458
1657206371837,151,-1046,357
1657206371877,225,-1284,333
1657206371917,-52,-1060,376
1657206371957,-244,-977,374
1657206371997,-100,-1050,250
1657206372037,-141,-936,283
1657206372077,-167,-816,260
1657206372117,-183,-806,229
1657206372157,-186,-813,263
1657206372197,-170,-864,292
1657206372237,-154,-934,313
1657206372277,-202,-1001,336
1657206372317,-191,-1066,339
1657206372357,-190,-1175,344
1657206372397,-218,-1297,350
1657206372437,-286,-1245,352
1657206372477,-424,-1145,325
1657206372517,-364,-1113,253
1657206372557,-210,-1093,274
1657206372597,-118,-1034,378
1657206372637,-112,-912,454
1657206372677,-69,-786,489
1657206372717,22,-799,498
1657206372757,34,-819,446
1657206372797,41,-875,488
1657206372837,54,-942,476
1657206372877,67,-1013,501
1657206372917,122,-1044,476
1657206372957,149,-1173,417
1657206372997,131,-1171,307
1657206373037,-143,-915,344
1657206373077,-118,-953,281
1657206373117,-7,-976,208
1657206373157,-86,-857,304
1657206373197,-145,-797,306
1657206373237,-160,-795,291
1657206373277,-168,-869,315
1657206373317,-148,-931,355
1657206373357,-162,-973,369
1657206373397,-184,-1024,335
1657206373437,-182,-1134,302
1657206373477,-286,-1310,250
1657206373517,-284,-1438,297
1657206373557,-529,-1318,313
1657206373597,-661,-1127,226
1657206373637,-397,-1072,246
1657206373677,-124,-1044,339
1657206373717,5,-1022,451
1657206373757,-81,-892,538
1657206373797,-62,-822,604
1657206373837,0,-825,567
1657206373877,58,-838,566
1657206373917,63,-853,558
1657206373957,103,-877,538
1657206373997,101,-985,490
1657206374037,135,-1038,386
1657206374077,270,-1256,311
1657206374117,91,-1097,300
1657206374157,-191,-1016,295
1657206374197,-103,-1128,172
1657206374237,-147,-1006,221
1657206374277,-211,-849,235
1657206374317,-208,-855,224
1657206374357,-216,-855,273
1657206374397,-170,-837,310
1657206374437,-118,-950,283
1657206374477,-177,-944,294
1657206374517,-192,-987,318
1657206374557,-198,-1101,310
1657206374597,-241,-1307,307
1657206374637,-327,-1356,357
1657206374677,-487,-1214,325
1657206374717,-440,-1154,230
1657206374757,-244,-1181,284
1657206374797,-132,-1104,382
1657206374837,-101,-969,472
1657206374877,-78,-853,511
1657206374917,-21,-775,521
1657206374957,50,-796,497
1657206374997,55,-841,475
1657206375037,53,-880,493
1657206375077,82,-890,495
1657206375117,144,-987,492
1657206375157,138,-1046,356
1657206375197,110,-1170,300
1657206375237,167,-1194,313
1657206375277,-90,-938,434
1657206375317,-215,-948,397
1657206375357,-150,-1035,199
1657206375397,-200,-937,211
1657206375437,-230,-842,258
1657206375477,-269,-864,240
1657206375517,-287,-912,246
1657206375557,-259,-960,203
1657206375597,-248,-998,164
1657206375637,-208,-1037,247
1657206375677,-77,-1165,375
1657206375717,-144,-1256,433
1657206375757,-205,-1291,412
1657206375797,-318,-1223,414
1657206375837,-388,-1047,386
1657206375877,-175,-1003,383
1657206375917,-25,-987,361
1657206375957,-40,-851,397
1657206375997,-40,-760,457
1657206376037,15,-751,441
1657206376077,35,-777,439
1657206376117,11,-825,460
1657206376157,32,-882,463
1657206376197,15,-964,450
1657206376237,27,-972,384
1657206376277,92,-1076,374
1657206376317,173,-1251,364
1657206376357,74,-1201,415
1657206376397,-182,-1076,402
1657206376437,-178,-1092,317
1657206376477,-59,-973,322
1657206376517,-132,-830,343
1657206376557,-137,-742,307
1657206376597,-151,-751,308
1657206376637,-134,-827,269
1657206376677,-108,-910,317
1657206376717,-168,-967,317
1657206376757,-140,-1056,305
1657206376797,-154,-1176,292
1657206376837,-171,-1237,303
1657206376877,-189,-1287,318
1657206376917,-358,-1201,278
1657206376957,-346,-1130,264
1657206376997,-213,-1045,317
1657206377037,-97,-1023,421
1657206377077,-108,-913,482
1657206377117,-68,-828,532
1657206377157,-13,-815,519
1657206377197,9,-836,506
1657206377237,14,-894,504
1657206377277,10,-917,505
1657206377317,77,-981,500
1657206377357,112,-1030,441
1657206377397,164,-1052,413
1657206377437,185,-1203,368
1657206377477,168,-1097,334
1657206377517,-65,-914,379
1657206377557,-6,-919,299
1657206377597,0,-963,275
1657206377637,-63,-873,315
1657206377677,-129,-835,353
1657206377717,-248,-881,283
1657206377757,-262,-962,282
1657206377797,-230,-1032,287
1657206377837,-251,-1048,278
1657206377877,-293,-1098,258
1657206377917,-182,-1136,279
1657206377957,-126,-1189,321
1657206377997,-79,-1229,366
1657206378037,-213,-1161,384
1657206378077,-314,-1057,272
1657206378117,-152,-1048,237
1657206378157,-62,-1013,323
1657206378197,-67,-964,443
1657206378237,-110,-905,529
1657206378277,-58,-887,580
1657206378317,19,-910,567
1657206378357,60,-911,522
1657206378397,90,-889,472
1657206378437,147,-871,448
1657206378477,146,-882,429
1657206378517,151,-951,388
1657206378557,167,-1111,321
1657206378597,190,-1143,348
1657206378637,-30,-980,420
1657206378677,-46,-1032,376
1657206378717,10,-1068,325
1657206378757,-65,-927,383
1657206378797,-125,-843,371
1657206378837,-180,-810,332
1657206378877,-201,-872,306
1657206378917,-214,-981,261
1657206378957,-200,-1022,280
1657206378997,-197,-1051,329
1657206379037,-177,-1111,313
1657206379077,-164,-1248,284
1657206379117,-148,-1387,251
1657206379157,-271,-1287,336
1657206379197,-281,-1144,307
1657206379237,-112,-1116,334
1657206379277,-33,-1040,391
1657206379317,-51,-904,484
1657206379357,-50,-843,531
1657206379397,-65,-854,534
1657206379437,-16,-882,523
1657206379477,40,-846,600
1657206379517,78,-888,613
1657206379557,80,-916,546
1657206379597,44,-918,518
1657206379637,94,-989,464
1657206379677,366,-1083,318
1657206379717,515,-1115,274
1657206379757,-147,-1109,702
1657206379797,-142,-1063,660
1657206379837,-93,-1111,570
1657206379877,-121,-747,587
1657206379917,-159,-617,539
1657206379957,-194,-668,468
1657206379997,-262,-709,482
1657206380037,-248,-768,506
1657206380077,-199,-831,566
1657206380117,-215,-905,633
1657206380157,-145,-938,743
1657206380197,-104,-1029,936
1657206380237,0,-935,904
1657206380277,-13,-803,820
1657206380317,-182,-763,620
1657206380357,-155,-837,543
1657206380397,-98,-749,639
1657206380437,-131,-660,769
1657206380477,-160,-596,774
1657206380517,-116,-536,808
1657206380557,-89,-661,800
1657206380597,-61,-725,904
1657206380637,-39,-749,945
1657206380677,22,-635,997
1657206380717,138,-658,965
1657206380757,239,-708,840
1657206380797,415,-882,720
1657206380837,421,-924,621
1657206380877,24,-832,667
1657206380917,68,-1025,604
1657206380957,72,-906,520
1657206380997,-31,-713,525
1657206381037,-88,-728,471
1657206381077,-190,-745,445
1657206381117,-145,-733,559
1657206381157,-86,-739,632
1657206381197,-113,-758,646
1657206381237,-97,-823,672
1657206381277,-109,-954,664
1657206381317,-107,-1101,683
1657206381357,-104,-1206,737
1657206381397,-270,-1110,709
1657206381437,-360,-1034,559
1657206381477,-147,-959,545
1657206381517,1,-830,652
1657206381557,-38,-687,682
1657206381597,-70,-608,713
1657206381637,-43,-608,722
1657206381677,-44,-645,731
1657206381717,-26,-756,786
1657206381757,-56,-789,796
1657206381797,38,-732,803
1657206381837,162,-735,794
1657206381877,313,-825,728
1657206381917,463,-1030,691
1657206381957,199,-833,733
1657206381997,138,-872,693
1657206382037,94,-1003,558
1657206382077,-49,-809,406
1657206382117,-149,-768,370
1657206382157,-200,-770,327
1657206382197,-226,-810,348
1657206382237,-201,-949,337
1657206382277,-163,-986,384
1657206382317,-175,-986,411
1657206382357,-149,-1036,360
1657206382397,-109,-1110,356
1657206382437,-108,-1180,382
1657206382477,-48,-1291,454
1657206382517,-260,-1186,482
1657206382557,-414,-1029,430
1657206382597,-191,-1014,289
1657206382637,-47,-1005,385
1657206382677,-89,-912,467
1657206382717,-133,-875,591
1657206382757,-118,-838,650
1657206382797,-71,-870,657
1657206382837,-47,-901,630
1657206382877,-24,-909,619
1657206382917,33,-927,601
1657206382957,97,-1034,603
1657206382997,172,-1004,489
1657206383037,262,-1076,437
1657206383077,126,-1062,277
1657206383117,-138,-870,222
1657206383157,-70,-934,22
1657206383197,79,-1069,240
1657206383237,-50,-935,328
1657206383277,-226,-932,313
1657206383317,-314,-938,271
1657206383357,-315,-997,204
1657206383397,-214,-1003,184
1657206383437,-171,-991,218
1657206383477,-123,-1004,273
1657206383517,-138,-1197,301
1657206383557,-211,-1326,289
1657206383597,-279,-1263,348
1657206383637,-440,-1112,293
1657206383677,-325,-1119,166
1657206383717,-151,-1123,194
1657206383757,-115,-1069,327
1657206383797,-102,-983,435
1657206383837,-124,-905,500
1657206383877,-54,-861,525
1657206383917,1,-862,511
1657206383957,-12,-848,476
1657206383997,21,-894,484
1657206384037,135,-973,456
1657206384077,157,-1076,368
1657206384117,171,-1255,340
1657206384157,209,-1161,333
1657206384197,-75,-983,282
1657206384237,-11,-1025,147
1657206384277,101,-986,150
1657206384317,7,-820,220
1657206384357,-77,-759,258
1657206384397,-112,-780,286
1657206384437,-158,-889,312
1657206384477,-182,-1007,373
1657206384517,-210,-1088,415
1657206384557,-320,-1129,425
1657206384597,-292,-1168,402
1657206384637,-255,-1280,373
1657206384677,-384,-1336,322
1657206384717,-397,-1184,272
1657206384757,-378,-1123,242
1657206384797,-284,-1147,263
1657206384837,-147,-1120,356
1657206384877,-92,-955,446
1657206384917,-17,-876,526
1657206384957,6,-843,500
1657206384997,58,-853,501
1657206385037,94,-896,508
1657206385077,66,-944,504
1657206385117,104,-934,484
1657206385157,131,-935,453
1657206385197,251,-1135,402
1657206385237,199,-1113,331
1657206385277,-101,-1058,349
1657206385317,47,-1125,252
1657206385357,-71,-977,187
1657206385397,-120,-796,207
1657206385437,-141,-792,133
1657206385477,-186,-809,175
1657206385517,-195,-881,247
1657206385557,-187,-905,321
1657206385597,-219,-970,383
1657206385637,-185,-1133,406
1657206385677,-201,-1333,441
1657206385717,-333,-1582,476
1657206385757,-510,-1409,472
1657206385797,-483,-1127,280
1657206385837,-310,-1005,187
1657206385877,-74,-957,249
1657206385917,23,-895,357
1657206385957,-104,-839,508
1657206385997,-107,-817,558
1657206386037,-61,-859,559
1657206386077,-53,-871,517
1657206386117,-35,-871,520
1657206386157,38,-926,514
1657206386197,112,-988,492
1657206386237,155,-1014,456
1657206386277,191,-1049,391
1657206386317,123,-1125,311
1657206386357,-106,-932,319
1657206386397,-59,-964,301
1657206386437,14,-1048,209
1657206386477,-41,-924,309
1657206386517,-110,-808,310
1657206386557,-176,-831,260
1657206386597,-285,-925,197
1657206386637,-275,-1053,104
1657206386677,-290,-996,195
1657206386717,-263,-940,268
1657206386757,-138,-1110,307
1657206386797,-92,-1506,373
1657206386837,-236,-1557,526
1657206386877,-439,-1236,604
1657206386917,-305,-1031,508
1657206386957,-53,-1005,390
1657206386997,13,-879,334
1657206387037,-62,-766,310
1657206387077,-16,-701,355
1657206387117,33,-705,380
1657206387157,-4,-776,400
1657206387197,-19,-830,436
1657206387237,-11,-851,472
1657206387277,2,-898,484
1657206387317,35,-1011,500
1657206387357,-50,-1209,441
1657206387397,18,-1555,335
1657206387437,3,-1293,357
1657206387477,7,-898,301
1657206387517,70,-894,109
1657206387557,92,-877,152
1657206387597,-32,-805,291
1657206387637,-153,-783,359
1657206387677,-191,-826,363
1657206387717,-194,-921,341
1657206387757,-151,-965,349
1657206387797,-158,-933,338
1657206387837,-137,-961,302
1657206387877,-116,-1090,252
1657206387917,-82,-1200,272
1657206387957,-40,-1343,359
1657206387997,-295,-1222,380
1657206388037,-421,-1162,290
1657206388077,-217,-1138,229
1657206388117,-120,-1056,323
1657206388157,-212,-1049,313
1657206388197,-50,-841,439
1657206388237,-25,-767,530
1657206388277,-30,-828,448
1657206388317,-74,-917,433
1657206388357,-65,-944,450
1657206388397,-11,-988,473
1657206388437,30,-1015,470
1657206388477,127,-1020,434
1657206388517,249,-1052,325
1657206388557,330,-968,244
1657206388597,126,-823,324
1657206388637,-65,-1046,366
1657206388677,-124,-1186,392
1657206388717,-176,-1089,423
1657206388757,-259,-960,332
1657206388797,-201,-905,264
1657206388837,-192,-901,211
1657206388877,-129,-907,208
1657206388917,-131,-920,226
1657206388957,-126,-953,220
1657206388997,-121,-1052,262
1657206389037,-120,-1172,261
1657206389077,-75,-1390,323
1657206389117,-295,-1346,364
1657206389157,-470,-1165,339
1657206389197,-267,-1095,299
1657206389237,-138,-1030,348
1657206389277,-86,-941,402
1657206389317,-84,-861,475
1657206389357,-18,-806,497
1657206389397,52,-830,500
1657206389437,49,-846,498
1657206389477,32,-858,511
1657206389517,71,-902,508
1657206389557,76,-977,502
1657206389597,142,-1040,409
1657206389637,254,-1198,347
1657206389677,270,-1156,317
1657206389717,-21,-941,402
1657206389757,-82,-1002,291
1657206389797,-26,-1022,214
1657206389837,-109,-912,258
1657206389877,-205,-872,264
1657206389917,-297,-883,224
1657206389957,-236,-903,253
1657206389997,-167,-961,319
1657206390037,-224,-985,275
1657206390077,-151,-1025,257
1657206390117,-136,-1124,287
1657206390157,-103,-1252,335
1657206390197,-107,-1337,440
1657206390237,-342,-1198,414
1657206390277,-307,-1118,318
1657206390317,-98,-1080,286
1657206390357,-12,-934,346
1657206390397,-29,-791,404
1657206390437,-40,-741,416
1657206390477,-31,-731,417
1657206390517,-21,-794,467
1657206390557,-52,-1031,515
1657206390597,-23,-1019,480
1657206390637,100,-939,481
1657206390677,224,-904,444
1657206390717,221,-901,392
1657206390757,200,-1159,402
1657206390797,140,-1151,365
1657206390837,-172,-1026,477
1657206390877,-255,-1048,390
1657206390917,-76,-1013,248
1657206390957,-132,-869,232
1657206390997,-187,-802,218
1657206391037,-206,-843,212
1657206391077,-215,-899,204
1657206391117,-181,-929,273
1657206391157,-118,-944,323
1657206391197,-86,-981,319
1657206391237,-74,-1088,307
1657206391277,-8,-1177,351
1657206391317,39,-1321,405
1657206391357,-199,-1181,421
1657206391397,-330,-1086,363
1657206391437,-262,-1099,274
1657206391477,-191,-1041,335
1657206391517,-143,-929,396
1657206391557,-102,-827,434
1657206391597,-38,-796,451
1657206391637,7,-810,446
1657206391677,0,-825,456
1657206391717,6,-862,474
1657206391757,44,-902,510
1657206391797,73,-965,553
1657206391837,121,-1019,504
1657206391877,140,-1110,375
1657206391917,146,-1218,259
1657206391957,0,-1054,307
1657206391997,-143,-971,329
1657206392037,-56,-969,255
1657206392077,-59,-919,292
1657206392117,-113,-836,319
1657206392157,-177,-824,276
1657206392197,-197,-835,270
1657206392237,-155,-902,270
1657206392277,-172,-930,277
1657206392317,-199,-1034,301
1657206392357,-157,-1044,340
1657206392397,-59,-1115,349
1657206392437,-114,-1196,313
1657206392477,-91,-1263,318
1657206392517,-235,-1188,303
1657206392557,-348,-1127,263
1657206392597,-180,-1082,218
1657206392637,-100,-990,354
1657206392677,-72,-947,408
1657206392717,-147,-865,440
1657206392757,-92,-796,440
1657206392797,-31,-781,458
1657206392837,12,-784,448
1657206392877,26,-838,481
1657206392917,57,-917,486
1657206392957,15,-960,519
1657206392997,100,-1046,470
1657206393037,84,-1115,393
1657206393077,178,-1205,309
1657206393117,187,-1087,290
1657206393157,236,-1030,58
1657206393197,-60,-956,363
1657206393237,148,-992,386
1657206393277,46,-882,347
1657206393317,-82,-945,383
1657206393357,-137,-853,325
1657206393397,-62,-932,454
1657206393437,90,-922,312
1657206393477,25,-932,397
1657206393517,3,-932,408
1657206393557,33,-1028,442
1657206393597,-11,-1123,508
1657206393637,38,-1315,686
1657206393677,-185,-1245,701
1657206393717,-270,-1016,599
1657206393757,-173,-937,539
1657206393797,-90,-916,527
1657206393837,19,-925,605
1657206393877,-11,-926,638
1657206393917,-103,-901,644
1657206393957,-37,-882,640
1657206393997,12,-837,592
1657206394037,6,-815,572
1657206394077,43,-832,521
1657206394117,113,-849,513
1657206394157,144,-890,458
1657206394197,198,-967,381
1657206394237,255,-1155,336
1657206394277,176,-1175,349
1657206394317,-106,-1075,299
1657206394357,-57,-1047,280
1657206394397,-10,-1001,328
1657206394437,-75,-927,387
1657206394477,-149,-867,411
1657206394517,-219,-893,387
1657206394557,-242,-945,403
1657206394597,-197,-990,408
1657206394637,-169,-1007,383
1657206394677,-168,-1031,319
1657206394717,-174,-1092,239
1657206394757,-183,-1218,173
1657206394797,-219,-1401,247
1657206394837,-360,-1298,253
1657206394877,-439,-1229,198
1657206394917,-268,-1172,250
1657206394957,-117,-1189,320
1657206394997,-31,-1079,391
1657206395037,-25,-943,475
1657206395077,19,-881,479
1657206395117,79,-853,450
1657206395157,94,-828,444
1657206395197,16,-846,452
1657206395237,67,-910,427
1657206395277,137,-1050,435
1657206395317,94,-1078,380
1657206395357,216,-1253,359
1657206395397,178,-1084,325
1657206395437,6,-951,325
1657206395477,58,-1069,179
1657206395517,25,-1012,226
1657206395557,-52,-879,226
1657206395597,-124,-841,164
1657206395637,-163,-858,247
1657206395677,-142,-905,280
1657206395717,-141,-995,336
1657206395757,-172,-1035,348
1657206395797,-201,-1064,359
1657206395837,-177,-1157,327
1657206395877,-184,-1287,317
1657206395917,-288,-1425,277
1657206395957,-456,-1307,271
1657206395997,-370,-1166,237
1657206396037,-198,-1084,256
1657206396077,-41,-1051,320
1657206396117,0,-956,405
1657206396157,-37,-866,464
1657206396197,-36,-845,490
1657206396237,-13,-851,494
1657206396277,7,-862,508
1657206396317,28,-898,532
1657206396357,78,-914,514
1657206396397,126,-958,516
1657206396437,150,-1002,434
1657206396477,201,-1143,346
1657206396517,228,-1187,208
1657206396557,27,-1013,274
1657206396597,-181,-1113,102
1657206396637,102,-945,250
1657206396677,-84,-848,390
1657206396717,-172,-795,280
1657206396757,-266,-877,197
1657206396797,-335,-920,170
1657206396837,-209,-914,251
1657206396877,-244,-1016,253
1657206396917,-243,-1049,230
1657206396957,-216,-1114,269
1657206396997,-191,-1275,288
1657206397037,-198,-1448,376
1657206397077,-437,-1303,391
1657206397117,-413,-1101,355
1657206397157,-211,-1028,294
1657206397197,-82,-1001,312
1657206397237,-80,-919,346
1657206397277,-53,-827,402
1657206397317,3,-794,454
1657206397357,14,-816,488
1657206397397,5,-850,514
1657206397437,-14,-919,511
1657206397477,53,-930,510
1657206397517,100,-977,480
1657206397557,105,-1011,400
1657206397597,180,-1140,331
1657206397637,187,-1118,281
1657206397677,70,-994,385
1657206397717,14,-1008,379
1657206397757,-34,-1003,327
1657206397797,-60,-877,340
1657206397837,-125,-838,330
1657206397877,-203,-845,231
1657206397917,-226,-946,157
1657206397957,-244,-1018,156
1657206397997,-225,-1030,186
1657206398037,-240,-1053,182
1657206398077,-174,-1178,223
1657206398117,-58,-1432,344
1657206398157,-156,-1475,461
1657206398197,-413,-1265,492
1657206398237,-314,-1113,367
1657206398277,-84,-1072,369
1657206398317,26,-979,362
1657206398357,13,-814,346
1657206398397,-49,-786,371
1657206398437,9,-776,411
1657206398477,21,-790,453
1657206398517,-26,-834,506
1657206398557,-17,-868,547
1657206398597,0,-913,562
1657206398637,87,-963,535
1657206398677,163,-1079,479
1657206398717,175,-1233,371
1657206398757,27,-1138,357
1657206398797,-154,-1039,318
1657206398837,-44,-1035,230
1657206398877,-38,-887,277
1657206398917,-75,-781,279
1657206398957,-190,-819,213
1657206398997,-169,-833,258
1657206399037,-214,-976,261
1657206399077,-210,-1049,286
1657206399117,-230,-1049,346
1657206399157,-249,-1082,330
1657206399197,-188,-1208,280
1657206399237,-159,-1359,279
1657206399277,-199,-1343,344
1657206399317,-388,-1157,319
1657206399357,-234,-1101,277
1657206399397,-99,-1033,363
1657206399437,-43,-937,432
1657206399477,-101,-813,484
1657206399517,-74,-802,503
1657206399557,-20,-797,461
1657206399597,13,-807,483
1657206399637,31,-851,514
1657206399677,15,-899,526
1657206399717,5,-935,492
1657206399757,92,-984,429
1657206399797,136,-1075,368
1657206399837,250,-1202,283
1657206399877,125,-1091,309
1657206399917,-77,-996,337
1657206399957,-28,-1014,293
1657206399997,-36,-950,295
1657206400037,-122,-862,267
1657206400077,-162,-814,252
1657206400117,-176,-861,262
1657206400157,-177,-952,263
1657206400197,-178,-989,282
1657206400237,-195,-999,318
1657206400277,-163,-1053,309
1657206400317,-204,-1108,286
1657206400357,-131,-1267,331
1657206400397,-194,-1302,352
1657206400437,-441,-1165,339
1657206400477,-363,-1102,269
1657206400517,-189,-1072,330
1657206400557,-92,-999,388
1657206400597,-100,-867,439
1657206400637,-46,-821,469
1657206400677,3,-813,461
1657206400717,12,-839,493
1657206400757,5,-899,500
1657206400797,14,-914,511
1657206400837,20,-970,558
1657206400877,93,-1004,495
1657206400917,171,-1109,415
1657206400957,316,-1150,253
1657206400997,202,-960,288
1657206401037,71,-954,354
1657206401077,78,-1037,341
1657206401117,-64,-976,370
1657206401157,-168,-880,369
1657206401197,-223,-889,294
1657206401237,-266,-925,257
1657206401277,-226,-969,295
1657206401317,-182,-995,313
1657206401357,-202,-1047,333
1657206401397,-198,-1087,310
1657206401437,-146,-1185,333
1657206401477,-167,-1354,317
1657206401517,-243,-1330,354
1657206401557,-354,-1165,334
1657206401597,-187,-1078,298
1657206401637,-42,-1027,333
1657206401677,-27,-909,426
1657206401717,-66,-847,539
1657206401757,-86,-798,543
1657206401797,-16,-775,519
1657206401837,38,-822,509
1657206401877,34,-847,475
1657206401917,65,-887,476
1657206401957,46,-931,445
1657206401997,91,-993,407
1657206402037,166,-1074,360
1657206402077,273,-1271,289
1657206402117,93,-1044,386
1657206402157,-8,-1014,457
1657206402197,15,-1042,356
1657206402237,-44,-911,339
1657206402277,-121,-812,273
1657206402317,-200,-808,277
1657206402357,-222,-870,297
1657206402397,-184,-922,282
1657206402437,-172,-967,331
1657206402477,-228,-1041,325
1657206402517,-184,-1098,293
1657206402557,-184,-1207,282
1657206402597,-135,-1315,339
1657206402637,-233,-1353,362
1657206402677,-441,-1186,323
1657206402717,-319,-1067,278
1657206402757,-143,-1013,322
1657206402797,-87,-1041,419
1657206402837,-166,-950,499
1657206402877,-111,-834,537
1657206402917,-21,-789,507
1657206402957,-1,-778,474
1657206402997,-8,-773,457
1657206403037,-5,-805,450
1657206403077,-7,-850,432
1657206403117,30,-952,441
1657206403157,109,-1028,401
1657206403197,270,-1297,375
1657206403237,227,-1270,305
1657206403277,-113,-1042,428
1657206403317,-125,-1060,339
1657206403357,-25,-1022,245
1657206403397,-82,-877,298
1657206403437,-155,-820,279
1657206403477,-216,-856,281
1657206403517,-248,-911,316
1657206403557,-214,-956,322
1657206403597,-232,-982,323
1657206403637,-231,-1006,294
1657206403677,-204,-1035,263
1657206403717,-142,-1112,273
1657206403757,-137,-1281,298
1657206403797,-196,-1283,352
1657206403837,-308,-1176,365
1657206403877,-271,-1100,331
1657206403917,-137,-1087,371
1657206403957,-63,-1012,405
1657206403997,-75,-865,458
1657206404037,-55,-806,486
1657206404077,-25,-782,478
1657206404117,11,-782,455
1657206404157,-8,-813,451
1657206404197,-10,-864,424
1657206404237,53,-904,416
1657206404277,38,-961,405
1657206404317,102,-1009,344
1657206404357,206,-1275,321
1657206404397,98,-1148,319
1657206404437,-21,-1023,414
1657206404477,56,-1125,339
1657206404517,4,-1017,379
1657206404557,-37,-840,399
1657206404597,-119,-815,332
1657206404637,-145,-813,298
1657206404677,-133,-836,333
1657206404717,-131,-904,336
1657206404757,-183,-978,354
1657206404797,-232,-1052,333
1657206404837,-280,-1128,323
1657206404877,-274,-1167,312
1657206404917,-182,-1292,305
1657206404957,-228,-1294,351
1657206404997,-271,-1212,401
1657206405037,-246,-1112,405
1657206405077,-118,-976,481
1657206405117,-16,-926,548
1657206405157,-34,-815,532
1657206405197,20,-717,515
1657206405237,100,-737,492
1657206405277,-35,-825,534
1657206405317,-76,-911,518
1657206405357,-105,-929,508
1657206405397,-99,-1030,523
1657206405437,-176,-1177,589
1657206405477,-261,-1373,599
1657206405517,-434,-1540,485
1657206405557,-511,-1235,340
1657206405597,-392,-917,224
1657206405637,-79,-709,-66
1657206405677,-176,-702,-252
1657206405717,-324,-656,-79
1657206405757,-459,-675,65
