timestamp,accel_X,accel_Y,accel_Z
1657206537637,-704,348,-707
1657206537677,-687,341,-687
1657206537717,-688,319,-666
1657206537757,-707,339,-668
1657206537797,-701,346,-661
1657206537837,-703,360,-673
1657206537877,-688,356,-671
1657206537917,-692,352,-672
1657206537957,-691,356,-686
1657206537997,-701,348,-669
1657206538037,-703,376,-693
1657206538077,-689,356,-679
1657206538117,-691,360,-675
1657206538157,-691,358,-650
1657206538197,-699,374,-651
1657206538237,-671,388,-683
1657206538277,-671,403,-672
1657206538317,-702,380,-643
1657206538357,-702,353,-639
1657206538397,-679,342,-637
1657206538437,-710,373,-666
1657206538477,-713,363,-688
1657206538517,-671,321,-729
1657206538557,-692,391,-712
1657206538597,-578,400,-766
1657206538637,-725,390,-697
1657206538677,-552,421,-776
1657206538717,-561,378,-716
1657206538757,-463,409,-787
1657206538797,-423,399,-830
1657206538837,-459,358,-814
1657206538877,-362,425,-855
1657206538917,-444,483,-927
1657206538957,-411,482,-898
1657206538997,-395,450,-958
1657206539037,-334,347,-878
1657206539077,-368,339,-845
1657206539117,-359,341,-949
1657206539157,-317,271,-921
1657206539197,-270,215,-831
1657206539237,-205,85,-717
1657206539277,-23,340,-547
1657206539317,-686,631,-1904
1657206539357,-153,634,-1533
1657206539397,-227,410,-889
1657206539437,-217,-67,-625
1657206539477,-350,-51,-599
1657206539517,-317,149,-795
1657206539557,-387,129,-964
1657206539597,-564,232,-925
1657206539637,-667,384,-912
1657206539677,-740,278,-873
1657206539717,-818,147,-159
1657206539757,-1212,-300,617
1657206539797,-1000,-277,822
1657206539837,-439,-635,586
1657206539877,-570,-605,657
1657206539917,-441,-668,527
1657206539957,-398,-733,579
1657206539997,-340,-745,420
1657206540037,-407,-727,439
1657206540077,-415,-745,434
1657206540117,-483,-698,383
1657206540157,-415,-740,369
1657206540197,-494,-688,383
1657206540237,-544,-689,433
1657206540277,-496,-763,473
1657206540317,-490,-694,439
1657206540357,-506,-709,500
1657206540397,-473,-705,567
1657206540437,-599,-730,650
1657206540477,-594,-715,619
1657206540517,-591,-666,535
1657206540557,-590,-641,520
1657206540597,-486,-581,540
1657206540637,-633,-655,398
1657206540677,-913,-450,805
1657206540717,-945,-362,452
1657206540757,-888,-301,371
1657206540797,-853,-270,327
1657206540837,-817,-234,273
1657206540877,-789,-113,301
1657206540917,-759,-47,205
1657206540957,-595,154,291
1657206540997,-439,248,135
1657206541037,-302,454,87
1657206541077,-15,583,22
1657206541117,499,559,-158
1657206541157,256,684,394
1657206541197,148,1385,1115
1657206541237,-43,2047,1004
1657206541277,-268,2047,907
1657206541317,-555,2047,898
1657206541357,-777,1504,894
1657206541397,-346,1182,597
1657206541437,101,887,290
1657206541477,247,657,102
1657206541517,-44,867,211
1657206541557,-234,1096,144
1657206541597,-336,1225,89
1657206541637,-255,1174,193
1657206541677,-199,1159,416
1657206541717,-221,1201,519
1657206541757,-135,1192,551
1657206541797,-38,1185,561
1657206541837,33,1135,577
1657206541877,92,1060,569
1657206541917,68,967,572
1657206541957,145,835,528
1657206541997,142,766,463
1657206542037,22,804,388
1657206542077,37,810,282
1657206542117,17,839,207
1657206542157,-40,853,250
1657206542197,-79,956,275
1657206542237,-90,973,239
1657206542277,-59,954,322
1657206542317,-128,975,435
1657206542357,-226,1057,444
1657206542397,-244,1035,435
1657206542437,-146,995,382
1657206542477,-44,990,316
1657206542517,-94,1042,336
1657206542557,-210,1071,406
1657206542597,-234,1052,433
1657206542637,-178,1011,415
1657206542677,-75,991,363
1657206542717,-89,974,369
1657206542757,-60,961,390
1657206542797,-42,963,392
1657206542837,-1,942,394
1657206542877,33,949,385
1657206542917,76,932,349
1657206542957,84,946,335
1657206542997,117,934,335
1657206543037,40,980,371
1657206543077,-13,976,404
1657206543117,-19,982,393
1657206543157,9,950,373
1657206543197,49,930,371
1657206543237,41,918,400
1657206543277,53,894,421
1657206543317,-47,950,426
1657206543357,-83,992,380
1657206543397,-61,993,401
1657206543437,-87,1013,376
1657206543477,-82,980,413
1657206543517,-64,983,416
1657206543557,-105,997,411
1657206543597,-113,945,405
1657206543637,-65,901,381
1657206543677,-21,899,350
1657206543717,-25,900,332
1657206543757,-81,948,337
1657206543797,-131,951,385
1657206543837,-173,964,420
1657206543877,-168,962,420
1657206543917,-102,946,424
1657206543957,-72,916,390
1657206543997,-3,925,362
1657206544037,146,1030,306
1657206544077,117,989,337
1657206544117,33,865,419
1657206544157,60,888,474
1657206544197,30,940,361
1657206544237,11,919,410
1657206544277,2,944,444
1657206544317,-2,999,491
1657206544357,-95,996,466
1657206544397,-119,983,400
1657206544437,-111,998,300
1657206544477,-40,997,278
1657206544517,-51,995,291
1657206544557,-66,1004,285
1657206544597,-32,977,276
1657206544637,28,947,277
1657206544677,119,1017,404
1657206544717,89,977,554
1657206544757,87,854,532
1657206544797,186,875,427
1657206544837,130,1009,323
1657206544877,34,1048,352
1657206544917,-107,1018,407
1657206544957,-120,942,383
1657206544997,-75,1029,414
1657206545037,-100,1116,393
1657206545077,-536,1036,497
1657206545117,-177,1022,533
1657206545157,-81,995,522
1657206545197,-56,946,529
1657206545237,2,898,506
1657206545277,-6,850,452
1657206545317,-23,828,385
1657206545357,-49,816,368
1657206545397,-24,876,293
1657206545437,-53,909,275
1657206545477,-79,920,276
1657206545517,-65,921,266
1657206545557,-68,927,298
1657206545597,-22,1000,331
1657206545637,-82,1003,405
1657206545677,-131,1022,359
1657206545717,-81,1073,362
1657206545757,-126,1099,325
1657206545797,-146,1004,293
1657206545837,-131,964,320
1657206545877,-41,955,338
1657206545917,19,973,360
1657206545957,0,958,342
1657206545997,-11,981,317
1657206546037,0,963,280
1657206546077,23,975,304
1657206546117,70,946,338
1657206546157,55,954,361
1657206546197,48,951,316
1657206546237,57,954,291
1657206546277,61,962,270
1657206546317,23,965,261
1657206546357,41,960,285
1657206546397,-3,947,309
1657206546437,-2,1010,397
1657206546477,-8,1038,432
1657206546517,-62,1059,425
1657206546557,-94,1073,416
1657206546597,-127,944,404
1657206546637,-57,920,403
1657206546677,-70,1042,396
1657206546717,-76,1125,464
1657206546757,-226,995,506
1657206546797,-122,1100,564
1657206546837,-29,1018,595
1657206546877,28,928,502
1657206546917,45,856,435
1657206546957,47,807,394
1657206546997,-6,843,327
1657206547037,-61,844,316
1657206547077,-73,811,374
1657206547117,-80,834,340
1657206547157,-67,856,275
1657206547197,-42,898,284
1657206547237,32,1035,265
1657206547277,-58,1052,334
1657206547317,-118,1044,409
1657206547357,-157,1065,360
1657206547397,-254,1066,246
1657206547437,-132,1013,313
1657206547477,-113,1054,329
1657206547517,-79,1012,415
1657206547557,-81,908,413
1657206547597,-80,875,362
1657206547637,-64,927,292
1657206547677,-84,1029,281
1657206547717,-124,1092,254
1657206547757,-142,1048,262
1657206547797,-100,985,252
1657206547837,-44,961,238
1657206547877,-48,957,271
1657206547917,-102,980,297
1657206547957,-118,974,313
1657206547997,-180,996,307
1657206548037,-171,1167,214
1657206548077,-89,1215,257
1657206548117,-249,1107,329
1657206548157,-342,1027,388
1657206548197,-94,1075,406
1657206548237,-293,1162,373
1657206548277,-346,1053,478
1657206548317,-337,938,488
1657206548357,-280,887,396
1657206548397,-295,868,333
1657206548437,-281,804,263
1657206548477,-289,764,194
1657206548517,-381,790,174
1657206548557,-368,756,154
1657206548597,-429,854,187
1657206548637,-452,982,163
1657206548677,-558,1203,105
1657206548717,-595,1190,59
1657206548757,-731,1084,50
1657206548797,-570,893,-32
1657206548837,-411,813,-137
1657206548877,-475,918,-243
1657206548917,-590,841,-197
1657206548957,-553,743,-219
1657206548997,-645,747,-323
1657206549037,-732,716,-322
1657206549077,-736,639,-380
1657206549117,-775,663,-481
1657206549157,-800,487,-444
1657206549197,-797,445,-488
1657206549237,-784,256,-508
1657206549277,-578,112,-615
1657206549317,-553,83,-623
1657206549357,-339,119,-610
1657206549397,-515,134,-659
1657206549437,-481,308,-895
1657206549477,-478,408,-962
1657206549517,-368,191,-733
1657206549557,-600,314,-893
1657206549597,-512,267,-814
1657206549637,-606,190,-720
1657206549677,-587,296,-826
1657206549717,-461,313,-967
1657206549757,-397,198,-907
1657206549797,-459,300,-930
1657206549837,-560,199,-712
1657206549877,-550,97,-652
1657206549917,-322,12,-552
1657206549957,-266,1635,120
1657206549997,-726,567,-1092
1657206550037,-345,595,-1143
1657206550077,-513,274,-834
1657206550117,-344,154,-592
1657206550157,-411,231,-888
1657206550197,-495,225,-780
1657206550237,-561,354,-853
1657206550277,-499,244,-822
1657206550317,-343,140,-741
1657206550357,-360,128,-807
1657206550397,-459,116,-845
1657206550437,-555,95,-841
1657206550477,-546,110,-906
1657206550517,-421,125,-729
1657206550557,-417,304,-725
1657206550597,-319,360,-778
1657206550637,-640,1052,-1255
1657206550677,-463,641,-1395
1657206550717,-505,258,-533
1657206550757,-433,-56,-440
1657206550797,-258,32,-768
1657206550837,-365,165,-737
1657206550877,-619,244,-744
1657206550917,-535,185,-742
1657206550957,-511,130,-698
1657206550997,-341,78,-705
1657206551037,-188,127,-386
1657206551077,-544,2047,56
1657206551117,-478,910,-1171
1657206551157,-460,584,-532
1657206551197,-298,61,-576
1657206551237,-329,118,-849
1657206551277,-359,37,-686
1657206551317,-565,360,-893
1657206551357,-563,372,-868
1657206551397,-477,172,-716
1657206551437,-324,119,-734
1657206551477,-622,420,-1123
1657206551517,-596,365,-1034
1657206551557,-337,49,-814
1657206551597,-323,3,-663
1657206551637,-116,190,-131
1657206551677,-869,1528,-2048
1657206551717,-280,724,-1476
1657206551757,-278,355,-460
1657206551797,-369,-79,-475
1657206551837,-391,101,-772
1657206551877,-368,0,-690
1657206551917,-377,-102,-629
1657206551957,-492,-12,-716
1657206551997,-677,230,-825
1657206552037,-456,520,-435
1657206552077,-874,1034,-2048
1657206552117,-366,1059,-1314
1657206552157,-667,667,-1143
1657206552197,-615,217,-580
1657206552237,-341,198,-692
1657206552277,-455,262,-797
1657206552317,-450,179,-754
1657206552357,-464,243,-963
1657206552397,-518,313,-989
1657206552437,-524,240,-869
1657206552477,-527,295,-840
1657206552517,-449,258,-871
1657206552557,-469,213,-761
1657206552597,-420,391,-1000
1657206552637,-409,358,-841
1657206552677,-296,99,-341
1657206552717,-2048,1708,-2048
1657206552757,-512,1502,-1342
1657206552797,-396,740,-1222
1657206552837,-324,230,-685
1657206552877,-262,324,-598
1657206552917,-342,307,-680
1657206552957,-540,379,-560
1657206552997,-483,259,-323
1657206553037,-283,379,-483
1657206553077,-71,154,-527
1657206553117,253,58,-338
1657206553157,294,703,-432
1657206553197,309,577,-249
1657206553237,-210,1103,350
1657206553277,-1612,2047,552
1657206553317,-1075,1082,1204
1657206553357,-699,960,1139
1657206553397,-458,1420,498
1657206553437,-510,1189,614
1657206553477,-452,1151,460
1657206553517,-335,1096,421
1657206553557,-167,995,417
1657206553597,-67,910,390
1657206553637,-74,882,360
1657206553677,-89,902,298
1657206553717,-58,881,297
1657206553757,-53,902,323
1657206553797,-44,915,300
1657206553837,25,949,361
1657206553877,63,934,403
1657206553917,40,896,430
1657206553957,-37,807,386
1657206553997,-91,881,460
1657206554037,-44,1088,481
1657206554077,-73,1182,535
1657206554117,-201,1069,560
1657206554157,-242,970,449
1657206554197,-162,948,302
1657206554237,-188,989,246
1657206554277,-234,1040,216
1657206554317,-262,1019,196
1657206554357,-296,999,269
1657206554397,-241,1042,255
1657206554437,-212,1150,325
1657206554477,-79,1307,512
1657206554517,-150,1333,578
1657206554557,-310,1245,504
1657206554597,-215,1108,503
1657206554637,37,1072,553
1657206554677,-21,1080,611
1657206554717,-58,1003,619
1657206554757,35,984,530
1657206554797,73,915,418
1657206554837,92,839,338
1657206554877,92,764,325
1657206554917,78,736,319
1657206554957,38,712,329
1657206554997,-7,744,317
1657206555037,2,821,331
1657206555077,-6,956,353
1657206555117,23,1095,357
1657206555157,65,1209,399
1657206555197,-42,1196,433
1657206555237,-187,1069,427
1657206555277,-250,996,336
1657206555317,-139,1052,256
1657206555357,-110,1084,271
1657206555397,-103,1052,384
1657206555437,-170,954,322
1657206555477,-98,919,252
1657206555517,-76,882,199
1657206555557,-100,936,186
1657206555597,-104,993,205
1657206555637,-117,1034,247
1657206555677,-111,1011,309
1657206555717,-79,1000,334
1657206555757,-21,1074,335
1657206555797,105,1335,464
1657206555837,-13,1370,521
1657206555877,-144,1092,399
1657206555917,55,905,380
1657206555957,98,947,319
1657206555997,-5,971,346
1657206556037,-21,884,437
1657206556077,26,804,463
1657206556117,-67,880,422
1657206556157,-40,922,395
1657206556197,7,931,371
1657206556237,6,898,354
1657206556277,-21,852,370
1657206556317,6,909,353
1657206556357,54,1031,286
1657206556397,165,1071,278
1657206556437,201,1152,329
1657206556477,100,1051,394
1657206556517,0,864,341
1657206556557,20,873,268
1657206556597,71,978,248
1657206556637,42,972,359
1657206556677,-13,888,414
1657206556717,-21,850,365
1657206556757,22,896,295
1657206556797,-22,955,249
1657206556837,-29,1005,217
1657206556877,-47,1055,214
1657206556917,-86,1013,202
1657206556957,-13,1019,236
1657206556997,-27,1108,255
1657206557037,-10,1165,310
1657206557077,40,1308,394
1657206557117,-133,1309,346
1657206557157,-273,1156,246
1657206557197,-40,1035,269
1657206557237,89,991,305
1657206557277,-57,1000,391
1657206557317,-101,968,520
1657206557357,-61,875,583
1657206557397,-15,815,572
1657206557437,-8,810,485
1657206557477,-18,851,379
1657206557517,2,883,355
1657206557557,-30,898,368
1657206557597,0,908,352
1657206557637,101,962,361
1657206557677,177,1032,255
1657206557717,380,1099,233
1657206557757,272,1115,340
1657206557797,148,1032,401
1657206557837,-56,952,358
1657206557877,1,961,303
1657206557917,98,982,373
1657206557957,108,977,448
1657206557997,27,927,451
1657206558037,-14,911,423
1657206558077,-44,965,286
1657206558117,-34,1027,188
1657206558157,-54,1070,163
1657206558197,-60,1072,182
1657206558237,-45,1011,241
1657206558277,7,966,266
1657206558317,27,1016,258
1657206558357,24,1081,316
1657206558397,166,1290,463
1657206558437,-53,1247,421
1657206558477,-203,1008,409
1657206558517,-49,942,433
1657206558557,-40,947,439
1657206558597,-99,1044,445
1657206558637,-54,985,522
1657206558677,-3,907,579
1657206558717,58,831,558
1657206558757,86,830,491
1657206558797,75,835,475
1657206558837,80,847,473
1657206558877,190,809,398
1657206558917,402,882,371
1657206558957,376,1128,314
1657206558997,494,1270,380
1657206559037,244,1112,581
1657206559077,-52,1035,590
1657206559117,11,1087,320
1657206559157,80,1039,166
1657206559197,-68,896,292
1657206559237,-92,898,276
1657206559277,-85,924,263
1657206559317,-88,989,277
1657206559357,-116,1020,274
1657206559397,-100,1028,253
1657206559437,-76,1035,220
1657206559477,16,1026,225
1657206559517,90,1044,241
1657206559557,56,1145,299
1657206559597,88,1337,445
1657206559637,-162,1210,351
1657206559677,-217,933,321
1657206559717,-11,861,368
1657206559757,31,1050,387
1657206559797,-128,1137,378
1657206559837,-158,1072,583
1657206559877,-75,1016,677
1657206559917,-17,987,595
1657206559957,44,929,574
1657206559997,92,808,527
1657206560037,105,757,475
1657206560077,111,788,409
1657206560117,127,867,308
1657206560157,207,987,213
1657206560197,353,1150,145
1657206560237,284,1169,323
1657206560277,-21,1041,401
1657206560317,-227,987,401
1657206560357,-65,1067,380
1657206560397,-54,1102,393
1657206560437,-141,1032,432
1657206560477,-171,968,385
1657206560517,-153,936,354
1657206560557,-107,912,332
1657206560597,-89,948,285
1657206560637,-111,1005,259
1657206560677,-104,1024,245
1657206560717,-97,1001,243
1657206560757,-88,1010,283
1657206560797,-82,1116,276
1657206560837,-38,1284,419
1657206560877,-248,1224,284
1657206560917,-307,1040,355
1657206560957,-144,1071,520
1657206560997,-108,1240,498
1657206561037,-140,1179,581
1657206561077,-66,1079,647
1657206561117,44,1011,606
1657206561157,116,915,533
1657206561197,107,837,395
1657206561237,103,767,362
1657206561277,106,745,339
1657206561317,103,764,323
1657206561357,104,814,345
1657206561397,77,950,301
1657206561437,181,1106,219
1657206561477,273,1178,393
1657206561517,21,1098,442
1657206561557,-140,1019,465
1657206561597,-154,1102,452
1657206561637,-21,1095,381
1657206561677,-76,1045,441
1657206561717,-89,952,369
1657206561757,-129,941,327
1657206561797,-123,1026,216
1657206561837,-190,1037,248
1657206561877,-182,1027,283
1657206561917,-208,1018,266
1657206561957,-244,1046,285
1657206561997,-203,1095,281
1657206562037,-163,1125,334
1657206562077,-21,1268,436
1657206562117,-197,1227,403
1657206562157,-319,1086,431
1657206562197,-138,1165,567
1657206562237,-17,1238,498
1657206562277,-91,1127,649
1657206562317,-18,1082,628
1657206562357,70,931,559
1657206562397,99,865,437
1657206562437,86,803,331
1657206562477,24,755,263
1657206562517,36,692,261
1657206562557,38,671,301
1657206562597,16,754,278
1657206562637,24,919,302
1657206562677,57,1097,279
1657206562717,131,1276,395
1657206562757,-15,1269,571
1657206562797,-255,1105,542
1657206562837,-299,1069,374
1657206562877,-123,1091,292
1657206562917,-84,1060,386
1657206562957,-133,1033,332
1657206562997,-152,965,268
1657206563037,-135,940,192
1657206563077,-123,959,167
1657206563117,-113,985,186
1657206563157,-154,1000,199
1657206563197,-136,955,257
1657206563237,-158,1013,317
1657206563277,-188,1108,337
1657206563317,-46,1242,441
1657206563357,-195,1271,412
1657206563397,-384,1148,272
1657206563437,-212,1090,428
1657206563477,-86,1185,489
1657206563517,-140,1138,529
1657206563557,-111,1058,551
1657206563597,-3,996,503
1657206563637,69,907,460
1657206563677,108,817,407
1657206563717,92,733,366
1657206563757,66,667,364
1657206563797,40,645,330
1657206563837,91,698,287
1657206563877,318,896,344
1657206563917,196,1406,288
1657206563957,102,1524,472
1657206563997,-109,1267,622
1657206564037,-355,1046,336
1657206564077,-112,973,225
1657206564117,33,1010,227
1657206564157,-18,1027,302
1657206564197,-55,924,382
1657206564237,-58,895,320
1657206564277,-57,958,288
1657206564317,-85,968,283
1657206564357,-41,1040,274
1657206564397,-75,1035,240
1657206564437,-51,1047,234
1657206564477,-22,992,308
1657206564517,-47,1009,439
1657206564557,27,1145,543
1657206564597,14,1287,569
1657206564637,-229,1108,434
1657206564677,-139,917,460
1657206564717,-8,963,448
1657206564757,-5,1149,414
1657206564797,-76,1095,507
1657206564837,-79,1018,565
1657206564877,-6,962,533
1657206564917,54,880,500
1657206564957,96,798,487
1657206564997,110,752,424
1657206565037,97,727,380
1657206565077,90,773,341
1657206565117,122,900,328
1657206565157,135,1030,248
1657206565197,326,1156,208
1657206565237,125,1174,374
1657206565277,-52,983,439
1657206565317,-201,1059,448
1657206565357,-43,1136,358
1657206565397,-55,1110,385
1657206565437,-98,969,344
1657206565477,-116,938,309
1657206565517,-80,948,216
1657206565557,-81,974,252
1657206565597,-83,986,277
1657206565637,-92,1006,287
1657206565677,-106,989,281
1657206565717,-39,1025,297
1657206565757,-3,1076,343
1657206565797,-38,1186,431
1657206565837,-28,1344,484
1657206565877,-238,1173,307
1657206565917,-225,958,240
1657206565957,-70,983,340
1657206565997,-108,1172,361
1657206566037,-163,1164,470
1657206566077,-104,1055,592
1657206566117,-1,979,616
1657206566157,28,944,574
1657206566197,11,872,509
1657206566237,65,814,462
1657206566277,112,763,414
1657206566317,117,756,361
1657206566357,168,848,342
1657206566397,192,1005,231
1657206566437,293,1139,199
1657206566477,238,1106,328
1657206566517,13,1031,363
1657206566557,-185,1025,357
1657206566597,-33,1072,397
1657206566637,-21,1142,459
1657206566677,-119,1077,500
1657206566717,-178,991,414
1657206566757,-146,981,308
1657206566797,-111,966,303
1657206566837,-117,975,276
1657206566877,-134,1024,234
1657206566917,-134,1036,265
1657206566957,-148,1017,272
1657206566997,-90,1041,347
1657206567037,-141,1115,309
1657206567077,-65,1223,359
1657206567117,-111,1248,369
1657206567157,-281,1104,292
1657206567197,-256,1077,315
1657206567237,-97,1148,425
1657206567277,-79,1161,503
1657206567317,-73,1088,595
1657206567357,-13,1008,617
1657206567397,40,956,603
1657206567437,52,911,576
1657206567477,62,822,544
1657206567517,41,801,496
1657206567557,40,784,428
1657206567597,106,763,446
1657206567637,207,802,350
1657206567677,208,938,226
1657206567717,281,1143,155
1657206567757,208,1248,277
1657206567797,-22,1162,375
1657206567837,-276,1084,417
1657206567877,-247,1125,353
1657206567917,-155,1121,386
1657206567957,-173,1049,435
1657206567997,-154,935,414
1657206568037,-133,900,373
1657206568077,-124,910,302
1657206568117,-84,927,269
1657206568157,-89,983,235
1657206568197,-76,1015,242
1657206568237,-106,1044,292
1657206568277,-100,1065,275
1657206568317,-91,1085,307
1657206568357,-40,1103,356
1657206568397,50,1257,476
1657206568437,-219,1151,365
1657206568477,-310,1026,318
1657206568517,-82,1001,436
1657206568557,15,1083,443
1657206568597,-68,997,529
1657206568637,-78,1076,475
1657206568677,38,978,512
1657206568717,26,795,658
1657206568757,46,682,645
1657206568797,20,701,491
1657206568837,69,783,389
1657206568877,91,903,279
1657206568917,53,1022,250
1657206568957,73,1090,213
1657206568997,286,1181,270
1657206569037,199,1162,432
1657206569077,-40,1011,413
1657206569117,-143,1009,321
1657206569157,44,1041,350
1657206569197,18,1024,437
1657206569237,-50,956,483
1657206569277,-127,933,396
1657206569317,-112,925,345
1657206569357,-107,940,323
1657206569397,-131,950,312
1657206569437,-183,1019,317
1657206569477,-201,1047,295
1657206569517,-204,1061,287
1657206569557,-199,1070,283
1657206569597,-65,1006,328
1657206569637,36,1186,463
1657206569677,-214,1218,374
1657206569717,-420,1076,302
1657206569757,-201,1034,447
1657206569797,-6,1090,405
1657206569837,-71,1065,495
1657206569877,-54,1050,540
1657206569917,-33,962,557
1657206569957,73,909,533
1657206569997,119,796,526
1657206570037,67,713,514
1657206570077,103,731,372
1657206570117,94,768,311
1657206570157,78,887,308
1657206570197,106,1065,276
1657206570237,174,1263,213
1657206570277,142,1211,361
1657206570317,-32,1162,410
1657206570357,-154,1010,416
1657206570397,-88,1003,421
1657206570437,-31,997,420
1657206570477,-38,967,442
1657206570517,-86,900,377
1657206570557,-104,890,357
1657206570597,-151,899,329
1657206570637,-240,988,316
1657206570677,-179,1055,227
1657206570717,-181,1029,306
1657206570757,-96,1002,315
1657206570797,-75,995,327
1657206570837,-109,1028,312
1657206570877,-53,1088,330
1657206570917,-28,1276,404
1657206570957,-407,1262,291
1657206570997,-331,1108,377
1657206571037,-148,1076,575
1657206571077,-78,1076,654
1657206571117,-120,903,678
1657206571157,-47,861,609
1657206571197,-5,844,553
1657206571237,45,823,502
1657206571277,41,769,460
1657206571317,26,814,409
1657206571357,20,824,385
1657206571397,48,800,438
1657206571437,44,903,380
1657206571477,60,1023,318
1657206571517,230,1218,394
1657206571557,112,1099,552
1657206571597,-222,947,602
1657206571637,-255,907,453
1657206571677,-93,1082,366
1657206571717,-39,1074,433
1657206571757,-114,935,495
1657206571797,-199,875,452
1657206571837,-178,905,302
1657206571877,-195,982,273
1657206571917,-186,1034,299
1657206571957,-219,1066,307
1657206571997,-203,1001,316
1657206572037,-117,942,284
1657206572077,-74,973,270
1657206572117,-54,1138,327
1657206572157,-90,1320,462
1657206572197,-276,1172,361
1657206572237,-181,1011,478
1657206572277,24,1081,488
1657206572317,-143,1193,535
1657206572357,-90,1060,569
1657206572397,-40,948,596
1657206572437,45,862,542
1657206572477,94,800,454
1657206572517,99,759,412
1657206572557,75,757,361
1657206572597,61,787,347
1657206572637,121,825,313
1657206572677,233,922,327
1657206572717,181,1166,294
1657206572757,146,1202,412
1657206572797,75,1065,513
1657206572837,-5,937,426
1657206572877,50,1035,307
1657206572917,49,1182,346
1657206572957,-83,1128,443
1657206572997,-118,952,461
1657206573037,-94,943,277
1657206573077,-12,959,183
1657206573117,-45,978,221
1657206573157,-50,978,272
1657206573197,-104,1003,256
1657206573237,-75,1003,260
1657206573277,-83,1072,338
1657206573317,-110,1135,393
1657206573357,-44,1316,425
1657206573397,-220,1196,348
1657206573437,-294,1008,318
1657206573477,-62,1046,402
1657206573517,-74,1236,414
1657206573557,-102,1173,554
1657206573597,-40,1086,655
1657206573637,10,1031,623
1657206573677,74,990,554
1657206573717,126,903,480
1657206573757,212,737,415
1657206573797,228,582,373
1657206573837,196,574,303
1657206573877,171,735,274
1657206573917,133,939,253
1657206573957,216,1259,270
1657206573997,135,1293,516
1657206574037,-146,1176,647
1657206574077,-358,1203,508
1657206574117,-166,1223,345
1657206574157,-84,1130,360
1657206574197,-86,986,369
1657206574237,-37,882,334
1657206574277,-23,899,290
1657206574317,-16,889,313
1657206574357,-100,917,273
1657206574397,-124,1024,236
1657206574437,-143,1061,256
1657206574477,-106,998,343
1657206574517,-88,949,383
1657206574557,-54,1089,374
1657206574597,-142,1268,196
1657206574637,-277,1129,343
1657206574677,-226,1134,652
1657206574717,-113,1335,622
1657206574757,-159,1225,659
1657206574797,-64,1035,700
1657206574837,77,990,563
1657206574877,144,874,435
1657206574917,155,745,402
1657206574957,172,671,337
1657206574997,122,658,295
1657206575037,94,722,308
1657206575077,81,747,366
1657206575117,72,885,392
1657206575157,60,1112,384
1657206575197,146,1319,374
1657206575237,68,1294,549
1657206575277,-93,1134,590
1657206575317,-263,1098,483
1657206575357,-98,1074,366
1657206575397,-86,1092,358
1657206575437,-65,984,312
1657206575477,-128,883,281
1657206575517,-112,888,190
1657206575557,-90,932,211
1657206575597,-126,996,251
1657206575637,-159,1009,305
1657206575677,-186,1038,352
1657206575717,-158,994,394
1657206575757,-106,1008,424
1657206575797,9,1197,472
1657206575837,-175,1254,400
1657206575877,-274,1152,360
1657206575917,-118,1106,534
1657206575957,1,1100,621
1657206575997,-102,1070,558
1657206576037,-82,957,581
1657206576077,15,920,542
1657206576117,78,840,433
1657206576157,123,762,393
1657206576197,150,732,317
1657206576237,113,780,328
1657206576277,72,862,334
1657206576317,42,946,413
1657206576357,124,1052,372
1657206576397,268,1124,370
1657206576437,121,1088,462
1657206576477,-46,932,487
1657206576517,-144,1009,435
1657206576557,-61,1105,370
1657206576597,-61,1090,410
1657206576637,-122,991,416
1657206576677,-126,910,396
1657206576717,-105,928,324
1657206576757,-126,966,283
1657206576797,-130,999,311
1657206576837,-165,1052,325
1657206576877,-162,1009,319
1657206576917,-102,952,332
1657206576957,-58,962,337
1657206576997,-67,1055,330
1657206577037,-47,1251,395
1657206577077,-265,1306,202
1657206577117,-360,1184,286
1657206577157,-138,1142,462
1657206577197,-17,1122,596
1657206577237,-70,1077,669
1657206577277,-6,964,678
1657206577317,151,919,596
1657206577357,94,877,534
1657206577397,184,752,541
1657206577437,142,715,473
1657206577477,120,732,374
1657206577517,147,876,274
1657206577557,168,1012,182
1657206577597,281,1228,260
1657206577637,344,1202,429
1657206577677,20,1043,571
1657206577717,-219,963,417
1657206577757,-20,1055,250
1657206577797,54,1058,241
1657206577837,9,1004,409
1657206577877,-92,945,494
1657206577917,-156,948,331
1657206577957,-99,942,332
1657206577997,-77,955,338
1657206578037,-97,984,320
1657206578077,-144,1003,293
1657206578117,-60,1013,319
1657206578157,-89,1051,353
1657206578197,-78,1065,364
1657206578237,-26,1165,437
1657206578277,-98,1219,484
1657206578317,-273,1106,333
1657206578357,-236,995,351
1657206578397,-89,1021,472
1657206578437,-51,1050,493
1657206578477,-93,936,586
1657206578517,-66,874,658
1657206578557,-23,850,604
1657206578597,-52,894,514
1657206578637,-41,833,540
1657206578677,0,819,493
1657206578717,-7,815,437
1657206578757,10,840,481
1657206578797,97,887,370
1657206578837,334,1118,323
1657206578877,245,1137,376
1657206578917,89,1043,548
1657206578957,-114,919,487
1657206578997,-123,987,417
1657206579037,-14,1097,382
1657206579077,-94,1108,381
1657206579117,-102,969,379
1657206579157,-90,917,331
1657206579197,-70,911,265
1657206579237,-61,968,227
1657206579277,-75,992,244
1657206579317,-144,998,312
1657206579357,-164,972,311
1657206579397,-115,985,336
1657206579437,-69,1117,391
1657206579477,-46,1338,505
1657206579517,-294,1248,367
1657206579557,-395,1014,368
1657206579597,-167,1020,465
1657206579637,-51,1092,459
1657206579677,-70,1079,545
1657206579717,-34,1024,571
1657206579757,13,931,615
1657206579797,75,837,579
1657206579837,73,771,538
1657206579877,89,758,500
1657206579917,88,744,473
1657206579957,80,822,411
1657206579997,98,925,331
1657206580037,155,985,276
1657206580077,275,1111,266
1657206580117,158,1173,460
1657206580157,-96,1108,452
1657206580197,-226,1062,429
1657206580237,-155,1089,405
1657206580277,-159,1058,425
1657206580317,-145,983,424
1657206580357,-142,917,407
1657206580397,-113,898,316
1657206580437,-75,932,290
1657206580477,-81,1002,265
1657206580517,-122,1022,302
1657206580557,-149,987,308
1657206580597,-143,980,204
1657206580637,-85,975,224
1657206580677,-130,1029,297
1657206580717,-30,1149,438
1657206580757,-168,1209,441
1657206580797,-313,1099,393
1657206580837,-232,1122,529
1657206580877,-126,1169,532
1657206580917,-109,1106,593
1657206580957,-76,980,619
1657206580997,-24,903,522
1657206581037,54,858,457
1657206581077,84,789,386
1657206581117,93,759,359
1657206581157,81,740,343
1657206581197,60,780,342
1657206581237,83,887,343
1657206581277,35,1020,345
1657206581317,100,1182,311
1657206581357,160,1228,424
1657206581397,-21,1034,482
1657206581437,-200,962,515
1657206581477,-142,1014,424
1657206581517,-64,1086,418
1657206581557,-116,998,439
1657206581597,-102,908,383
1657206581637,-100,908,291
1657206581677,-80,927,262
1657206581717,-136,956,286
1657206581757,-156,963,284
1657206581797,-165,1004,288
1657206581837,-122,1014,278
1657206581877,-114,1055,311
1657206581917,-99,1039,378
1657206581957,-65,1160,444
1657206581997,-76,1302,484
1657206582037,-273,1148,356
1657206582077,-279,1014,384
1657206582117,-32,1041,478
1657206582157,32,914,563
1657206582197,-108,952,585
1657206582237,-71,894,570
1657206582277,35,921,527
1657206582317,42,858,498
1657206582357,71,844,497
1657206582397,49,776,497
1657206582437,52,741,485
1657206582477,48,827,414
1657206582517,71,925,351
1657206582557,98,1079,292
1657206582597,254,1189,212
1657206582637,150,1223,385
1657206582677,-130,1045,377
1657206582717,-212,967,357
1657206582757,-61,1018,340
1657206582797,-83,1040,397
1657206582837,-61,920,456
1657206582877,-132,856,447
1657206582917,-87,830,354
1657206582957,-74,870,318
1657206582997,-119,957,309
1657206583037,-127,993,304
1657206583077,-145,1012,304
1657206583117,-138,1029,304
1657206583157,-68,1036,308
1657206583197,-129,1136,338
1657206583237,-103,1229,422
1657206583277,-191,1205,358
1657206583317,-309,1044,276
1657206583357,-154,976,316
1657206583397,-83,1090,338
1657206583437,-123,1101,495
1657206583477,-146,1015,619
1657206583517,-100,898,652
1657206583557,1,889,579
1657206583597,35,853,507
1657206583637,49,805,469
1657206583677,62,778,447
1657206583717,29,779,401
1657206583757,21,851,370
1657206583797,91,947,348
1657206583837,209,1075,239
1657206583877,339,1253,208
1657206583917,147,1200,428
1657206583957,-123,989,430
1657206583997,-212,963,306
1657206584037,-36,1016,267
1657206584077,-41,1033,374
1657206584117,-61,933,402
1657206584157,-110,869,430
1657206584197,-125,899,346
1657206584237,-119,901,293
1657206584277,-129,943,290
1657206584317,-134,994,268
1657206584357,-142,1001,245
1657206584397,-101,990,271
1657206584437,-112,1005,301
1657206584477,-146,1078,317
1657206584517,-75,1194,435
1657206584557,-183,1300,442
1657206584597,-389,1173,268
1657206584637,-244,1057,376
1657206584677,-78,1036,429
1657206584717,-102,1036,449
1657206584757,-104,959,545
1657206584797,-87,879,590
1657206584837,-21,881,535
1657206584877,-3,854,513
1657206584917,1,813,527
1657206584957,46,824,459
1657206584997,88,824,383
1657206585037,68,864,330
1657206585077,87,904,331
1657206585117,103,1066,344
1657206585157,209,1152,296
1657206585197,150,1174,451
1657206585237,-39,997,405
1657206585277,-133,924,416
1657206585317,-49,993,364
1657206585357,-56,1028,436
1657206585397,-113,961,460
1657206585437,-103,869,424
1657206585477,-101,877,347
1657206585517,-110,907,283
1657206585557,-119,949,297
1657206585597,-127,1000,297
1657206585637,-155,1025,295
1657206585677,-133,1048,278
1657206585717,-138,1030,303
1657206585757,-138,1066,332
1657206585797,-96,1192,381
1657206585837,-168,1300,385
1657206585877,-388,1142,245
1657206585917,-266,1011,302
1657206585957,-79,985,417
1657206585997,-62,1053,498
1657206586037,-135,1018,595
1657206586077,-99,952,605
1657206586117,-21,909,604
1657206586157,33,895,578
1657206586197,-43,868,524
1657206586237,36,824,470
1657206586277,105,754,423
1657206586317,162,778,349
1657206586357,225,887,307
1657206586397,255,1117,242
1657206586437,364,1230,339
1657206586477,1,1158,494
1657206586517,-301,1008,444
1657206586557,-123,1014,377
1657206586597,20,1030,302
1657206586637,-65,956,403
1657206586677,-68,893,373
1657206586717,-109,901,352
1657206586757,-110,933,293
1657206586797,-90,952,288
1657206586837,-111,1004,297
1657206586877,-117,1021,291
1657206586917,-118,993,303
1657206586957,-112,980,311
1657206586997,-103,988,306
1657206587037,-81,1125,352
1657206587077,-23,1287,467
1657206587117,-280,1192,313
1657206587157,-329,1077,270
1657206587197,-105,1003,370
1657206587237,-71,993,417
1657206587277,-111,965,496
1657206587317,-96,932,555
1657206587357,-68,883,600
1657206587397,-33,860,558
1657206587437,-13,854,530
1657206587477,45,872,473
1657206587517,55,883,411
1657206587557,19,870,393
1657206587597,51,894,384
1657206587637,103,961,357
1657206587677,198,1027,286
1657206587717,376,1166,361
1657206587757,134,1189,434
1657206587797,-72,995,447
1657206587837,-169,968,395
1657206587877,-16,979,287
1657206587917,2,939,351
1657206587957,-64,897,394
1657206587997,-118,867,399
1657206588037,-118,918,332
1657206588077,-121,937,324
1657206588117,-126,951,274
1657206588157,-167,923,219
1657206588197,-187,989,167
1657206588237,-218,1067,154
1657206588277,-169,1096,275
1657206588317,-84,1174,411
1657206588357,-11,1325,575
1657206588397,-231,1251,480
1657206588437,-380,1083,388
1657206588477,-97,1008,409
1657206588517,-23,959,422
1657206588557,-64,898,445
1657206588597,-61,840,474
1657206588637,-57,850,437
1657206588677,-18,879,460
1657206588717,-1,864,484
1657206588757,-25,841,489
1657206588797,-13,820,474
1657206588837,-25,821,457
1657206588877,0,851,384
1657206588917,52,954,344
1657206588957,165,1051,322
1657206588997,299,1148,358
1657206589037,172,1143,433
1657206589077,-91,1097,440
1657206589117,-181,1077,378
1657206589157,-53,1033,368
1657206589197,-17,939,406
1657206589237,3,842,366
1657206589277,-60,849,310
1657206589317,-86,885,306
1657206589357,-122,947,337
1657206589397,-104,976,304
1657206589437,-92,1016,300
1657206589477,-126,1006,271
1657206589517,-122,949,308
1657206589557,-122,979,272
1657206589597,-91,1017,294
1657206589637,4,1189,420
1657206589677,-198,1211,352
1657206589717,-359,1165,342
1657206589757,-206,1091,445
1657206589797,-163,1085,418
1657206589837,-170,1010,463
1657206589877,-116,883,511
1657206589917,-42,829,496
1657206589957,37,823,455
1657206589997,39,797,437
1657206590037,28,813,421
1657206590077,9,854,437
1657206590117,13,897,426
1657206590157,85,973,426
1657206590197,149,1079,362
1657206590237,223,1216,285
1657206590277,112,1096,359
1657206590317,-43,957,373
1657206590357,-106,933,312
1657206590397,21,969,344
1657206590437,52,994,419
1657206590477,-36,951,410
1657206590517,-90,887,416
1657206590557,-75,908,324
1657206590597,-36,912,286
1657206590637,-85,967,257
1657206590677,-108,981,256
1657206590717,-163,1004,277
1657206590757,-140,1007,261
1657206590797,-162,1085,292
1657206590837,-131,1201,345
1657206590877,-78,1350,465
1657206590917,-328,1227,314
1657206590957,-414,1002,291
1657206590997,-137,957,404
1657206591037,16,1075,432
1657206591077,86,1141,339
1657206591117,-97,892,523
1657206591157,-45,895,550
1657206591197,-3,865,514
1657206591237,23,845,498
1657206591277,26,841,455
1657206591317,14,815,450
1657206591357,68,819,425
1657206591397,90,880,406
1657206591437,97,1016,325
1657206591477,286,1100,292
1657206591517,149,1096,411
1657206591557,-37,972,427
1657206591597,-176,1005,395
1657206591637,-78,1087,328
1657206591677,-66,1077,386
1657206591717,-96,986,401
1657206591757,-77,895,338
1657206591797,-52,898,226
1657206591837,-47,934,229
1657206591877,-107,981,269
1657206591917,-154,993,282
1657206591957,-182,988,279
1657206591997,-137,1005,296
1657206592037,-173,1061,293
1657206592077,-122,1150,379
1657206592117,-94,1277,477
1657206592157,-336,1206,357
1657206592197,-370,1087,353
1657206592237,-172,1016,470
1657206592277,-33,1018,475
1657206592317,-93,989,553
1657206592357,-67,929,604
1657206592397,-23,886,560
1657206592437,27,878,483
1657206592477,63,832,441
1657206592517,71,797,416
1657206592557,73,793,407
1657206592597,31,828,388
1657206592637,75,916,353
1657206592677,148,1060,311
1657206592717,297,1258,302
1657206592757,98,1188,438
1657206592797,-139,928,531
1657206592837,-154,967,397
1657206592877,11,1047,259
1657206592917,27,940,396
1657206592957,20,923,319
1657206592997,-86,915,321
1657206593037,-125,968,293
1657206593077,-157,1013,322
1657206593117,-208,1047,312
1657206593157,-188,1053,282
1657206593197,-149,1031,239
1657206593237,-98,976,294
1657206593277,-121,1033,279
1657206593317,-17,1200,349
1657206593357,-203,1176,330
1657206593397,-328,1068,246
1657206593437,-154,1024,414
1657206593477,-81,1173,397
1657206593517,-183,1104,465
1657206593557,-161,962,599
1657206593597,-50,986,519
1657206593637,61,926,436
1657206593677,94,841,466
1657206593717,49,859,331
1657206593757,105,765,389
1657206593797,86,772,388
1657206593837,88,831,422
1657206593877,104,1030,382
1657206593917,244,1224,267
1657206593957,107,1209,405
1657206593997,-149,1078,420
1657206594037,-173,1106,366
1657206594077,-4,1056,293
1657206594117,-77,974,319
1657206594157,-97,883,293
1657206594197,-123,900,258
1657206594237,-108,946,185
1657206594277,-97,973,245
1657206594317,-89,968,293
1657206594357,-125,1021,260
1657206594397,-144,1071,257
1657206594437,-130,1050,305
1657206594477,-170,1037,309
1657206594517,-130,1169,279
1657206594557,-44,1274,221
1657206594597,-307,1179,253
1657206594637,-363,1105,404
1657206594677,-139,1124,515
1657206594717,-7,1160,497
1657206594757,-17,991,574
1657206594797,31,891,558
1657206594837,93,863,441
1657206594877,117,803,336
1657206594917,76,781,315
1657206594957,77,789,305
1657206594997,68,803,323
1657206595037,82,879,343
1657206595077,99,985,347
1657206595117,85,1102,352
1657206595157,173,1214,328
1657206595197,189,1181,441
1657206595237,-28,1089,460
1657206595277,-226,1058,388
1657206595317,-110,1091,248
1657206595357,-91,1059,344
1657206595397,-84,914,400
1657206595437,-100,832,348
1657206595477,-107,891,257
1657206595517,-116,927,237
1657206595557,-134,981,274
1657206595597,-86,992,278
1657206595637,-101,1004,293
1657206595677,-76,1000,277
1657206595717,-48,1024,277
1657206595757,-25,1006,259
1657206595797,63,1114,349
1657206595837,-15,1244,350
1657206595877,-308,1155,211
1657206595917,-169,1034,308
1657206595957,-22,1022,387
1657206595997,-99,1047,369
1657206596037,-120,949,422
1657206596077,-66,902,477
1657206596117,0,888,428
1657206596157,-17,893,399
1657206596197,-2,891,399
1657206596237,-21,902,418
1657206596277,12,892,406
1657206596317,158,862,371
1657206596357,347,812,273
1657206596397,450,1063,256
1657206596437,250,1357,403
1657206596477,7,1126,562
1657206596517,-52,1022,388
1657206596557,93,1101,221
1657206596597,97,1025,304
1657206596637,16,850,399
1657206596677,-16,831,408
1657206596717,-44,921,280
1657206596757,-65,947,271
1657206596797,-83,976,336
1657206596837,-130,1017,350
1657206596877,-140,1072,299
1657206596917,-105,1056,256
1657206596957,-53,968,263
1657206596997,-93,1009,249
1657206597037,-56,1046,221
1657206597077,48,1243,339
1657206597117,-170,1237,329
1657206597157,-329,1124,200
1657206597197,-106,1121,352
1657206597237,-52,1167,544
1657206597277,-102,1174,561
1657206597317,-7,1012,648
1657206597357,116,917,618
1657206597397,89,898,493
1657206597437,62,850,436
1657206597477,72,789,456
1657206597517,71,735,403
1657206597557,89,710,377
1657206597597,158,765,323
1657206597637,327,936,138
1657206597677,407,1346,63
1657206597717,412,1446,397
1657206597757,48,1329,625
1657206597797,-324,1220,342
1657206597837,-90,1100,242
1657206597877,29,957,278
1657206597917,-34,875,326
1657206597957,-11,873,336
1657206597997,-65,925,360
1657206598037,-70,941,318
1657206598077,-68,930,323
1657206598117,-81,956,272
1657206598157,-52,985,231
1657206598197,-2,991,222
1657206598237,0,1002,267
1657206598277,-53,1021,292
1657206598317,-29,1134,281
1657206598357,-12,1401,365
1657206598397,-225,1284,231
1657206598437,-275,1080,221
1657206598477,-38,1046,406
1657206598517,-61,1141,420
1657206598557,-103,1243,377
1657206598597,-66,1083,526
1657206598637,54,867,632
1657206598677,149,785,614
1657206598717,139,732,481
1657206598757,84,690,358
1657206598797,38,852,179
1657206598837,-89,902,324
1657206598877,-91,961,365
1657206598917,1,1069,368
1657206598957,234,1167,331
1657206598997,339,1146,400
1657206599037,51,1054,422
1657206599077,-10,983,334
1657206599117,67,979,286
1657206599157,108,939,365
1657206599197,0,934,431
1657206599237,-76,953,404
1657206599277,-104,1005,271
1657206599317,-123,1056,252
1657206599357,-176,1060,277
1657206599397,-200,1070,257
1657206599437,-239,1074,238
1657206599477,-203,1049,215
1657206599517,-179,1018,258
1657206599557,-162,1028,301
1657206599597,-97,1202,369
1657206599637,-228,1298,300
1657206599677,-339,1150,311
1657206599717,-134,1096,459
1657206599757,-12,1172,491
1657206599797,-116,1134,582
1657206599837,-113,1059,653
1657206599877,-18,967,633
1657206599917,69,882,557
1657206599957,116,825,427
1657206599997,113,790,347
1657206600037,110,763,325
1657206600077,72,776,350
1657206600117,106,858,322
1657206600157,112,1054,297
1657206600197,250,1227,198
1657206600237,368,1222,391
1657206600277,-1,1034,457
1657206600317,-220,921,388
1657206600357,-69,1049,288
1657206600397,14,1065,331
1657206600437,-62,993,429
1657206600477,-118,954,420
1657206600517,-139,966,331
1657206600557,-126,958,250
1657206600597,-112,958,240
1657206600637,-135,998,224
1657206600677,-174,1039,215
1657206600717,-207,1045,244
1657206600757,-151,1056,276
1657206600797,-123,1101,300
1657206600837,-46,1279,425
1657206600877,-156,1279,380
1657206600917,-312,1078,285
1657206600957,-181,1040,323
1657206600997,-2,1049,377
1657206601037,-20,1100,433
1657206601077,-47,1012,563
1657206601117,-38,928,599
1657206601157,9,915,460
1657206601197,23,880,379
1657206601237,55,822,354
1657206601277,77,782,332
1657206601317,70,800,297
1657206601357,73,859,306
1657206601397,92,932,276
1657206601437,172,1067,265
1657206601477,320,1176,378
1657206601517,94,1133,509
1657206601557,-137,1054,491
1657206601597,-233,1084,449
1657206601637,-48,1101,347
1657206601677,-80,1030,344
1657206601717,-71,939,291
1657206601757,-57,903,306
1657206601797,-110,948,212
1657206601837,-135,965,201
1657206601877,-186,1025,223
1657206601917,-229,1072,251
1657206601957,-253,1076,255
1657206601997,-221,983,297
1657206602037,-187,950,293
1657206602077,-105,1055,305
1657206602117,-69,1268,349
1657206602157,-321,1236,303
1657206602197,-267,1182,443
1657206602237,-58,1179,546
1657206602277,-88,1184,507
1657206602317,-111,1045,508
1657206602357,-53,885,532
1657206602397,71,799,397
1657206602437,115,744,323
1657206602477,107,728,285
1657206602517,83,772,270
1657206602557,57,821,314
1657206602597,36,896,359
1657206602637,35,986,362
1657206602677,137,1162,321
1657206602717,183,1228,381
1657206602757,-5,1111,463
1657206602797,-203,973,373
1657206602837,-92,1024,265
1657206602877,15,1062,296
1657206602917,-79,1052,363
1657206602957,-118,1001,365
1657206602997,-130,965,291
1657206603037,-90,958,240
1657206603077,-63,946,227
1657206603117,-69,995,232
1657206603157,-125,1007,258
1657206603197,-130,1011,308
1657206603237,-159,1019,270
1657206603277,-150,983,241
1657206603317,-18,1067,219
1657206603357,17,1232,363
1657206603397,-253,1208,318
1657206603437,-204,1127,398
1657206603477,-117,1143,492
1657206603517,-158,1099,524
1657206603557,-160,954,591
1657206603597,-63,920,515
1657206603637,2,878,453
1657206603677,64,824,404
1657206603717,88,802,353
1657206603757,81,812,327
1657206603797,26,834,348
1657206603837,7,906,376
1657206603877,37,955,332
1657206603917,91,1028,332
1657206603957,182,1235,269
1657206603997,239,1163,403
1657206604037,-2,1033,409
1657206604077,-126,1017,358
1657206604117,-53,1086,269
1657206604157,-66,988,312
1657206604197,-80,927,334
1657206604237,-51,902,254
1657206604277,-114,916,282
1657206604317,-176,964,277
1657206604357,-199,995,230
1657206604397,-184,997,247
1657206604437,-177,1026,235
1657206604477,-167,984,260
1657206604517,-158,1010,259
1657206604557,-173,995,228
1657206604597,-97,984,280
1657206604637,77,1258,379
1657206604677,-127,1340,360
1657206604717,-243,1261,405
1657206604757,-78,1157,586
1657206604797,-3,1074,527
1657206604837,-155,975,500
1657206604877,-157,917,534
1657206604917,-219,968,517
1657206604957,-449,1098,517
1657206604997,-471,1089,505
1657206605037,-453,1096,394
1657206605077,-637,1162,282
1657206605117,-662,1174,223
1657206605157,-601,960,-6
1657206605197,-480,803,-45
1657206605237,-526,699,-206
1657206605277,-230,476,-267
1657206605317,-494,462,-177
1657206605357,-543,490,-38
1657206605397,-550,474,-92
1657206605437,-602,449,-217
1657206605477,-667,480,-325
1657206605517,-722,467,-425
1657206605557,-844,493,-588
1657206605597,-667,381,-568
1657206605637,-643,256,-634
1657206605677,-630,288,-678
1657206605717,-549,282,-788
1657206605757,-596,288,-907
1657206605797,-499,231,-826
1657206605837,-503,159,-837
1657206605877,-502,278,-933
1657206605917,-476,172,-909
1657206605957,-621,88,-827
1657206605997,-667,400,-1065
1657206606037,-563,230,-790
1657206606077,-485,154,-741
1657206606117,-435,270,-870
1657206606157,-524,348,-882
1657206606197,-510,246,-775
1657206606237,-502,250,-843
1657206606277,-457,173,-833
1657206606317,-422,209,-932
1657206606357,-434,159,-902
1657206606397,-442,167,-895
1657206606437,-400,180,-1007
1657206606477,-412,183,-1086
1657206606517,-420,293,-1136
1657206606557,-338,176,-984
1657206606597,-283,61,-934
1657206606637,-480,182,-1007
1657206606677,-519,236,-941
1657206606717,-360,164,-917
1657206606757,-368,126,-911
1657206606797,-422,90,-886
1657206606837,-399,97,-910
1657206606877,-436,107,-896
1657206606917,-381,57,-852
1657206606957,-344,6,-866
1657206606997,-373,-8,-876
1657206607037,-408,41,-998
1657206607077,-369,52,-996
1657206607117,-388,5,-934
1657206607157,-324,96,-1072
1657206607197,-365,96,-1041
1657206607237,-452,4,-934
1657206607277,-561,152,-1093
1657206607317,-604,216,-992
1657206607357,-510,85,-859
1657206607397,-411,105,-953
1657206607437,-460,97,-841
1657206607477,-437,-2,-729
1657206607517,-423,0,-757
1657206607557,-471,-15,-798
1657206607597,-506,5,-885
1657206607637,-534,12,-881
1657206607677,-495,45,-933
1657206607717,-505,36,-909
1657206607757,-571,102,-963
1657206607797,-550,132,-983
1657206607837,-425,135,-954
1657206607877,-454,146,-996
1657206607917,-554,264,-946
1657206607957,-544,198,-775
1657206607997,-486,159,-823
1657206608037,-444,196,-943
1657206608077,-469,240,-984
1657206608117,-432,186,-879
1657206608157,-400,141,-840
1657206608197,-436,148,-916
1657206608237,-448,71,-896
1657206608277,-441,67,-926
1657206608317,-415,33,-898
1657206608357,-441,39,-915
1657206608397,-476,48,-969
1657206608437,-460,79,-995
1657206608477,-462,-17,-885
1657206608517,-616,12,-938
1657206608557,-675,314,-1173
1657206608597,-531,93,-729
1657206608637,-507,-7,-654
1657206608677,-472,109,-929
1657206608717,-563,157,-930
1657206608757,-554,57,-785
1657206608797,-472,34,-790
1657206608837,-487,37,-776
1657206608877,-522,56,-836
1657206608917,-508,54,-909
1657206608957,-506,110,-996
1657206608997,-498,108,-949
1657206609037,-514,116,-941
1657206609077,-489,123,-921
1657206609117,-452,161,-988
1657206609157,-477,202,-1062
1657206609197,-522,244,-989
1657206609237,-414,153,-853
1657206609277,-348,82,-814
1657206609317,-399,155,-911
1657206609357,-440,163,-884
1657206609397,-391,147,-903
1657206609437,-379,163,-949
1657206609477,-361,110,-923
1657206609517,-294,55,-924
1657206609557,-261,3,-899
1657206609597,-223,-37,-845
1657206609637,-226,-21,-951
1657206609677,-116,-134,-660
1657206609717,53,-68,-859
1657206609757,-17,420,-2048
1657206609797,-471,141,-1196
1657206609837,-214,-413,-537
1657206609877,-109,-420,-527
1657206609917,-8,-248,-529
1657206609957,-256,-289,-885
1657206609997,-399,-39,-1125
1657206610037,-354,-179,-758
1657206610077,-89,-171,-871
1657206610117,-62,-140,-968
1657206610157,75,-255,-829
1657206610197,-43,-168,-1029
1657206610237,142,-88,-1091
1657206610277,-347,356,-1806
1657206610317,-195,-97,-1166
1657206610357,-216,-89,-1110
1657206610397,-161,-211,-903
1657206610437,21,-442,-889
1657206610477,2,-506,-818
1657206610517,105,-540,-772
1657206610557,-42,-394,-863
