timestamp,accel_X,accel_Y,accel_Z
1657292302621,-900,-281,422
1657292302661,-904,-278,427
1657292302701,-898,-276,429
1657292302741,-890,-272,432
1657292302781,-897,-261,439
1657292302821,-891,-270,438
1657292302861,-905,-272,435
1657292302901,-913,-291,431
1657292302941,-913,-292,416
1657292302981,-890,-273,407
1657292303021,-884,-276,410
1657292303061,-896,-259,452
1657292303101,-909,-276,446
1657292303141,-902,-284,436
1657292303181,-896,-287,431
1657292303221,-888,-282,423
1657292303261,-893,-279,420
1657292303301,-890,-280,412
1657292303341,-912,-284,433
1657292303381,-919,-295,435
1657292303421,-917,-291,415
1657292303461,-891,-270,420
1657292303501,-875,-242,431
1657292303541,-878,-242,434
1657292303581,-915,-264,467
1657292303621,-915,-270,450
1657292303661,-910,-293,427
1657292303701,-897,-284,400
1657292303741,-901,-300,403
1657292303781,-900,-313,405
1657292303821,-888,-290,432
1657292303861,-889,-270,439
1657292303901,-887,-263,452
1657292303941,-911,-278,449
1657292303981,-896,-278,426
1657292304021,-907,-278,417
1657292304061,-896,-278,421
1657292304101,-899,-277,430
1657292304141,-904,-286,436
1657292304181,-893,-298,430
1657292304221,-880,-284,422
1657292304261,-893,-286,425
1657292304301,-894,-285,422
1657292304341,-907,-290,430
1657292304381,-900,-295,423
1657292304421,-900,-293,417
1657292304461,-892,-281,430
1657292304501,-882,-270,438
1657292304541,-893,-269,443
1657292304581,-908,-283,433
1657292304621,-911,-298,421
1657292304661,-900,-300,422
1657292304701,-889,-289,413
1657292304741,-897,-288,428
1657292304781,-891,-290,435
1657292304821,-900,-287,423
1657292304861,-892,-281,435
1657292304901,-895,-276,453
1657292304941,-888,-272,422
1657292304981,-918,-296,424
1657292305021,-915,-303,432
1657292305061,-892,-306,396
1657292305101,-876,-275,414
1657292305141,-877,-273,440
1657292305181,-900,-283,443
1657292305221,-898,-284,456
1657292305261,-907,-283,464
1657292305301,-898,-280,422
1657292305341,-902,-287,421
1657292305381,-894,-292,413
1657292305421,-896,-293,414
1657292305461,-899,-289,429
1657292305501,-889,-288,453
1657292305541,-884,-287,449
1657292305581,-888,-302,437
1657292305621,-881,-291,430
1657292305661,-898,-301,415
1657292305701,-905,-308,399
1657292305741,-891,-295,414
1657292305781,-900,-292,434
1657292305821,-886,-281,431
1657292305861,-894,-281,439
1657292305901,-904,-287,435
1657292305941,-911,-297,426
1657292305981,-892,-293,421
1657292306021,-884,-293,414
1657292306061,-879,-269,431
1657292306101,-870,-256,452
1657292306141,-904,-268,458
1657292306181,-919,-278,444
1657292306221,-905,-277,436
1657292306261,-914,-279,439
1657292306301,-902,-287,442
1657292306341,-881,-281,441
1657292306381,-889,-300,417
1657292306421,-881,-292,431
1657292306461,-886,-297,429
1657292306501,-882,-294,438
1657292306541,-892,-295,432
1657292306581,-900,-302,430
1657292306621,-898,-297,425
1657292306661,-898,-301,433
1657292306701,-899,-301,453
1657292306741,-890,-296,439
1657292306781,-877,-298,432
1657292306821,-883,-306,430
1657292306861,-894,-310,416
1657292306901,-910,-307,436
1657292306941,-906,-307,418
1657292306981,-895,-299,416
1657292307021,-896,-291,439
1657292307061,-886,-284,443
1657292307101,-918,-297,444
1657292307141,-933,-269,399
1657292307181,-1009,-284,414
1657292307221,-1095,-293,515
1657292307261,-1373,106,122
1657292307301,-1134,-212,505
1657292307341,-1145,-515,304
1657292307381,-1068,-135,308
1657292307421,-962,-36,122
1657292307461,-670,-106,-161
1657292307501,-542,-45,-480
1657292307541,-527,-97,-653
1657292307581,-484,-185,-762
1657292307621,-457,-58,-877
1657292307661,-446,-31,-630
1657292307701,-467,-81,-769
1657292307741,-346,-711,-1050
1657292307781,-743,-364,-1096
1657292307821,-479,-100,-1044
1657292307861,-512,-25,-744
1657292307901,-436,167,-638
1657292307941,-467,156,-592
1657292307981,-831,75,-823
1657292308021,-782,0,-706
1657292308061,-856,55,-651
1657292308101,-809,113,-620
1657292308141,-775,76,-579
1657292308181,-763,77,-574
1657292308221,-888,-11,-654
1657292308261,-839,12,-658
1657292308301,-775,23,-813
1657292308341,-773,-11,-680
1657292308381,-755,-31,-638
1657292308421,-823,-56,-637
1657292308461,-762,-70,-633
1657292308501,-731,-116,-662
1657292308541,-696,-98,-719
1657292308581,-838,-168,-837
1657292308621,-769,-75,-616
1657292308661,-815,-94,-698
1657292308701,-771,-47,-641
1657292308741,-791,-53,-645
1657292308781,-753,-30,-694
1657292308821,-717,-43,-730
1657292308861,-755,-76,-820
1657292308901,-704,-33,-754
1657292308941,-766,-71,-695
1657292308981,-609,-45,-761
1657292309021,-640,-54,-775
1657292309061,-705,-61,-745
1657292309101,-745,-46,-685
1657292309141,-759,-60,-738
1657292309181,-726,-82,-708
1657292309221,-715,-153,-735
1657292309261,-777,-242,-828
1657292309301,-718,-227,-796
1657292309341,-627,-264,-868
1657292309381,-689,-269,-1050
1657292309421,-592,-164,-715
1657292309461,-828,-150,-623
1657292309501,-591,114,-739
1657292309541,-583,55,-533
1657292309581,-673,51,-370
1657292309621,-753,60,-442
1657292309661,-924,-76,-496
1657292309701,-963,-226,-636
1657292309741,-896,-192,-663
1657292309781,-892,-288,-620
1657292309821,-847,-383,-774
1657292309861,-704,-317,-773
1657292309901,-694,-339,-700
1657292309941,-761,-325,-625
1657292309981,-795,-313,-546
1657292310021,-828,-324,-510
1657292310061,-803,-294,-509
1657292310101,-785,-299,-539
1657292310141,-797,-307,-546
1657292310181,-826,-328,-597
1657292310221,-828,-335,-604
1657292310261,-820,-340,-584
1657292310301,-821,-317,-532
1657292310341,-811,-320,-530
1657292310381,-825,-325,-532
1657292310421,-805,-319,-524
1657292310461,-805,-325,-537
1657292310501,-819,-331,-560
1657292310541,-802,-322,-559
1657292310581,-804,-322,-568
1657292310621,-814,-312,-548
1657292310661,-831,-302,-510
1657292310701,-832,-327,-520
1657292310741,-825,-322,-547
1657292310781,-817,-321,-546
1657292310821,-819,-333,-553
1657292310861,-810,-317,-547
1657292310901,-823,-326,-528
1657292310941,-819,-325,-527
1657292310981,-819,-335,-527
1657292311021,-817,-337,-531
1657292311061,-823,-348,-546
1657292311101,-797,-325,-547
1657292311141,-807,-336,-535
1657292311181,-820,-333,-545
1657292311221,-821,-327,-531
1657292311261,-819,-330,-530
1657292311301,-813,-338,-547
1657292311341,-813,-333,-536
1657292311381,-808,-321,-527
1657292311421,-816,-340,-521
1657292311461,-829,-341,-520
1657292311501,-829,-337,-526
1657292311541,-840,-347,-524
1657292311581,-820,-342,-539
1657292311621,-793,-328,-526
1657292311661,-823,-345,-530
1657292311701,-857,-368,-523
1657292311741,-811,-357,-521
1657292311781,-788,-345,-528
1657292311821,-806,-349,-544
1657292311861,-813,-338,-529
1657292311901,-818,-340,-514
1657292311941,-858,-371,-514
1657292311981,-809,-336,-511
1657292312021,-805,-345,-531
1657292312061,-828,-354,-534
1657292312101,-812,-338,-527
1657292312141,-818,-347,-529
1657292312181,-824,-347,-515
1657292312221,-829,-342,-516
1657292312261,-814,-339,-511
1657292312301,-820,-358,-532
1657292312341,-812,-361,-529
1657292312381,-809,-336,-511
1657292312421,-824,-356,-511
1657292312461,-823,-351,-518
1657292312501,-815,-351,-501
1657292312541,-813,-357,-517
1657292312581,-813,-349,-520
1657292312621,-823,-354,-508
1657292312661,-832,-348,-493
1657292312701,-842,-350,-514
1657292312741,-826,-349,-486
1657292312781,-830,-359,-516
1657292312821,-837,-348,-509
1657292312861,-825,-349,-506
1657292312901,-839,-356,-514
1657292312941,-826,-340,-496
1657292312981,-837,-355,-496
1657292313021,-831,-349,-503
1657292313061,-823,-342,-510
1657292313101,-836,-353,-504
1657292313141,-836,-346,-508
1657292313181,-817,-339,-498
1657292313221,-836,-352,-504
1657292313261,-817,-335,-498
1657292313301,-829,-346,-516
1657292313341,-829,-345,-510
1657292313381,-833,-352,-523
1657292313421,-827,-364,-536
1657292313461,-817,-344,-499
1657292313501,-826,-348,-497
1657292313541,-840,-363,-527
1657292313581,-814,-348,-503
1657292313621,-836,-373,-529
1657292313661,-811,-357,-523
1657292313701,-803,-344,-521
1657292313741,-834,-342,-516
1657292313781,-826,-324,-494
1657292313821,-839,-350,-514
1657292313861,-831,-343,-515
1657292313901,-829,-344,-517
1657292313941,-832,-334,-512
1657292313981,-837,-325,-492
1657292314021,-838,-339,-517
1657292314061,-836,-343,-505
1657292314101,-826,-333,-512
1657292314141,-844,-332,-506
1657292314181,-826,-346,-510
1657292314221,-823,-345,-512
1657292314261,-840,-356,-521
1657292314301,-847,-367,-512
1657292314341,-804,-344,-489
1657292314381,-807,-349,-505
1657292314421,-838,-357,-505
1657292314461,-835,-364,-488
1657292314501,-820,-361,-512
1657292314541,-817,-355,-499
1657292314581,-842,-365,-494
1657292314621,-828,-363,-498
1657292314661,-812,-367,-504
1657292314701,-798,-361,-510
1657292314741,-812,-355,-479
1657292314781,-809,-384,-496
1657292314821,-844,-405,-449
1657292314861,-819,-397,-478
1657292314901,-818,-388,-451
1657292314941,-861,-410,-431
1657292314981,-835,-398,-444
1657292315021,-874,-442,-431
1657292315061,-879,-435,-418
1657292315101,-859,-422,-413
1657292315141,-859,-425,-413
1657292315181,-846,-407,-402
1657292315221,-845,-413,-425
1657292315261,-852,-412,-412
1657292315301,-849,-407,-422
1657292315341,-858,-412,-412
1657292315381,-830,-391,-414
1657292315421,-839,-378,-415
1657292315461,-871,-384,-439
1657292315501,-867,-360,-457
1657292315541,-857,-328,-435
1657292315581,-875,-336,-456
1657292315621,-870,-329,-468
1657292315661,-831,-285,-417
1657292315701,-863,-315,-444
1657292315741,-857,-329,-485
1657292315781,-855,-317,-448
1657292315821,-883,-348,-461
1657292315861,-853,-372,-498
1657292315901,-878,-422,-547
1657292315941,-962,-519,-564
1657292315981,-892,-469,-461
1657292316021,-832,-468,-475
1657292316061,-847,-500,-474
1657292316101,-781,-431,-396
1657292316141,-750,-386,-334
1657292316181,-795,-435,-331
1657292316221,-794,-488,-383
1657292316261,-696,-447,-406
1657292316301,-718,-481,-498
1657292316341,-799,-542,-579
1657292316381,-747,-523,-668
1657292316421,-644,-459,-737
1657292316461,-684,-448,-867
1657292316501,-632,-386,-819
1657292316541,-553,-284,-671
1657292316581,-676,-267,-545
1657292316621,-739,-414,-416
1657292316661,-823,-257,-188
1657292316701,-902,-297,-414
1657292316741,-1090,-375,-468
1657292316781,-822,-157,-541
1657292316821,-863,-126,-638
1657292316861,-777,-171,-679
1657292316901,-812,-198,-690
1657292316941,-891,-284,-757
1657292316981,-809,-181,-621
1657292317021,-746,-146,-650
1657292317061,-800,-148,-737
1657292317101,-826,-54,-667
1657292317141,-780,-58,-683
1657292317181,-706,21,-794
1657292317221,-886,-5,-737
1657292317261,-813,11,-582
1657292317301,-731,43,-624
1657292317341,-767,-10,-668
1657292317381,-762,-7,-671
1657292317421,-753,-10,-708
1657292317461,-712,-40,-707
1657292317501,-688,-81,-686
1657292317541,-582,-323,-522
1657292317581,-807,-137,-865
1657292317621,-733,-201,-781
1657292317661,-623,-196,-640
1657292317701,-785,-375,-940
1657292317741,-889,-157,-696
1657292317781,-744,-35,-713
1657292317821,-722,-65,-684
1657292317861,-860,-32,-525
1657292317901,-736,-88,-659
1657292317941,-690,-70,-671
1657292317981,-683,-181,-579
1657292318021,-790,-327,-709
1657292318061,-773,-311,-642
1657292318101,-633,-343,-631
1657292318141,-407,-279,-661
1657292318181,-295,-182,-764
1657292318221,-251,-89,-713
1657292318261,-449,-426,-825
1657292318301,-684,-496,-998
1657292318341,-676,-211,-781
1657292318381,-857,-401,-772
1657292318421,-835,-357,-747
1657292318461,-603,-204,-547
1657292318501,-676,-313,-648
1657292318541,-676,-319,-630
1657292318581,-969,-537,-523
1657292318621,-903,-496,-653
1657292318661,-813,-397,-863
1657292318701,-901,-451,-723
1657292318741,-824,-462,-427
1657292318781,-655,-410,-461
1657292318821,-668,-571,-354
1657292318861,107,27,-2016
1657292318901,-463,-559,-702
1657292318941,-751,-632,-337
1657292318981,-663,-684,-428
1657292319021,-605,-676,-471
1657292319061,-703,-676,-414
1657292319101,-643,-651,-457
1657292319141,-664,-610,-418
1657292319181,-697,-689,-452
1657292319221,-604,-588,-553
1657292319261,-597,-615,-537
1657292319301,-685,-638,-494
1657292319341,-643,-601,-508
1657292319381,-648,-627,-529
1657292319421,-655,-691,-516
1657292319461,-548,-565,-686
1657292319501,-642,-479,-456
1657292319541,-589,-613,-603
1657292319581,-426,-560,-640
1657292319621,-592,-623,-616
1657292319661,-583,-561,-598
1657292319701,-487,-579,-713
1657292319741,-466,-565,-717
1657292319781,-428,-598,-674
1657292319821,-507,-600,-696
1657292319861,-452,-592,-712
1657292319901,-453,-563,-735
1657292319941,-485,-610,-650
1657292319981,-486,-612,-689
1657292320021,-447,-591,-710
1657292320061,-448,-591,-700
1657292320101,-516,-624,-677
1657292320141,-569,-607,-770
1657292320181,-517,-546,-723
1657292320221,-440,-618,-668
1657292320261,-485,-607,-651
1657292320301,-478,-613,-707
1657292320341,-450,-593,-701
1657292320381,-512,-636,-646
1657292320421,-501,-634,-659
1657292320461,-443,-647,-735
1657292320501,-450,-571,-676
1657292320541,-489,-655,-666
1657292320581,-465,-591,-700
1657292320621,-469,-558,-678
1657292320661,-489,-610,-681
1657292320701,-468,-630,-663
1657292320741,-463,-596,-696
1657292320781,-486,-620,-659
1657292320821,-469,-636,-578
1657292320861,-544,-712,-804
1657292320901,-454,-591,-685
1657292320941,-580,-532,-729
1657292320981,-467,-569,-652
1657292321021,-377,-622,-752
1657292321061,-547,-657,-583
1657292321101,-510,-647,-682
1657292321141,-348,-550,-786
1657292321181,-525,-654,-618
1657292321221,-469,-650,-698
1657292321261,-373,-595,-718
1657292321301,-527,-659,-658
1657292321341,-464,-629,-634
1657292321381,-460,-572,-606
1657292321421,-433,-571,-744
1657292321461,-458,-631,-675
1657292321501,-488,-634,-612
1657292321541,-472,-590,-663
1657292321581,-935,-1049,-984
1657292321621,-1375,-967,-772
1657292321661,-1084,-610,-260
1657292321701,-621,-66,-128
1657292321741,-488,-305,-140
1657292321781,-645,-539,-770
1657292321821,-494,-403,-477
1657292321861,-475,-489,-253
1657292321901,-671,-673,-415
1657292321941,-681,-652,-321
1657292321981,-435,-587,-164
1657292322021,-640,-943,-428
1657292322061,-311,-703,-563
1657292322101,-235,-790,-498
1657292322141,-129,-807,-515
1657292322181,-24,-751,-357
1657292322221,27,-1031,-123
1657292322261,-12,-1280,-137
1657292322301,-374,-1542,-107
1657292322341,-593,-1431,-14
1657292322381,-477,-1297,276
1657292322421,-425,-1228,372
1657292322461,-448,-1130,357
1657292322501,-380,-1018,388
1657292322541,-543,-1028,318
1657292322581,-288,-770,321
1657292322621,-233,-722,191
1657292322661,-374,-802,48
1657292322701,-366,-826,-18
1657292322741,-535,-1026,-111
1657292322781,-598,-1134,-182
1657292322821,-492,-1216,-74
1657292322861,-565,-1275,32
1657292322901,-708,-1169,113
1657292322941,-732,-1114,335
1657292322981,-695,-1245,586
1657292323021,-620,-1286,629
1657292323061,-680,-1252,623
1657292323101,-956,-1305,706
1657292323141,-953,-1258,703
1657292323181,-1105,-1198,473
1657292323221,-934,-733,386
1657292323261,-1131,-798,105
1657292323301,-919,-641,35
1657292323341,-581,-269,-111
1657292323381,-676,-169,-296
1657292323421,-465,336,-146
1657292323461,-698,287,-55
1657292323501,-708,207,-101
1657292323541,-588,339,-283
1657292323581,-312,450,-56
1657292323621,-81,599,-89
1657292323661,-250,534,-198
1657292323701,-290,560,-268
1657292323741,-348,750,-473
1657292323781,-376,844,-354
1657292323821,-459,868,-256
1657292323861,-549,839,-449
1657292323901,-443,895,-401
1657292323941,-504,1138,-311
1657292323981,-468,978,-499
1657292324021,-699,1140,-4
1657292324061,-583,989,-5
1657292324101,-476,864,-106
1657292324141,-360,767,-165
1657292324181,-405,710,-277
1657292324221,-458,735,-99
1657292324261,-381,802,-193
1657292324301,-398,798,-226
1657292324341,-354,792,-286
1657292324381,-324,811,-390
1657292324421,-304,799,-398
1657292324461,-285,771,-243
1657292324501,-258,747,-178
1657292324541,-292,585,-186
1657292324581,-245,560,-249
1657292324621,-319,424,-115
1657292324661,-892,-302,-112
1657292324701,-1064,-301,-191
1657292324741,-619,-145,-27
1657292324781,-598,-424,-131
1657292324821,-825,-636,-187
1657292324861,-563,-552,-38
1657292324901,-1182,-1183,-183
1657292324941,-688,-859,-31
1657292324981,-747,-1136,44
1657292325021,-1556,-1902,-237
1657292325061,-425,-1192,771
1657292325101,-652,-1283,1026
1657292325141,-649,-1241,644
1657292325181,-420,-1170,379
1657292325221,-516,-1217,214
1657292325261,-795,-1156,169
1657292325301,-748,-1080,276
1657292325341,-509,-1031,221
1657292325381,-311,-1099,103
1657292325421,-248,-1032,85
1657292325461,-360,-1049,89
1657292325501,-324,-1059,331
1657292325541,-256,-1032,400
1657292325581,-188,-964,347
1657292325621,-94,-874,308
1657292325661,-10,-764,280
1657292325701,24,-784,210
1657292325741,10,-903,86
1657292325781,-128,-1120,3
1657292325821,-118,-1263,-87
1657292325861,-377,-1247,25
1657292325901,-583,-1123,29
1657292325941,-378,-1196,-4
1657292325981,-232,-962,9
1657292326021,-189,-788,44
1657292326061,-213,-732,81
1657292326101,-252,-780,84
1657292326141,-212,-807,180
1657292326181,-259,-942,188
1657292326221,-335,-1018,160
1657292326261,-278,-998,138
1657292326301,-218,-1044,99
1657292326341,-233,-1161,37
1657292326381,-314,-1271,32
1657292326421,-402,-1348,30
1657292326461,-571,-1294,53
1657292326501,-625,-1105,20
1657292326541,-408,-1004,43
1657292326581,-142,-966,64
1657292326621,-127,-994,70
1657292326661,-187,-891,333
1657292326701,-219,-862,416
1657292326741,-186,-892,452
1657292326781,-157,-948,353
1657292326821,-140,-978,271
1657292326861,-93,-983,233
1657292326901,-93,-966,174
1657292326941,-87,-1035,143
1657292326981,-70,-1088,107
1657292327021,-76,-1228,99
1657292327061,-131,-1238,86
1657292327101,-290,-1110,84
1657292327141,-416,-1039,49
1657292327181,-219,-956,-17
1657292327221,-102,-911,40
1657292327261,-176,-861,124
1657292327301,-223,-801,195
1657292327341,-252,-797,204
1657292327381,-228,-832,140
1657292327421,-221,-903,92
1657292327461,-250,-950,88
1657292327501,-261,-978,133
1657292327541,-301,-1093,47
1657292327581,-301,-1180,43
1657292327621,-275,-1319,61
1657292327661,-387,-1302,122
1657292327701,-553,-1211,103
1657292327741,-437,-1035,136
1657292327781,-200,-987,195
1657292327821,-117,-909,181
1657292327861,-217,-888,338
1657292327901,-219,-842,399
1657292327941,-180,-876,316
1657292327981,-141,-862,256
1657292328021,-154,-906,234
1657292328061,-215,-1005,186
1657292328101,-177,-1028,211
1657292328141,-160,-1108,184
1657292328181,-92,-1259,147
1657292328221,-158,-1325,109
1657292328261,-469,-1119,86
1657292328301,-359,-1025,116
1657292328341,-58,-970,2
1657292328381,-78,-877,10
1657292328421,-143,-749,70
1657292328461,-149,-707,107
1657292328501,-174,-716,72
1657292328541,-151,-807,80
1657292328581,-142,-928,127
1657292328621,-233,-1024,139
1657292328661,-291,-1066,198
1657292328701,-293,-1144,151
1657292328741,-317,-1259,45
1657292328781,-260,-1386,59
1657292328821,-399,-1343,130
1657292328861,-657,-1205,61
1657292328901,-351,-1006,136
1657292328941,-138,-989,134
1657292328981,-114,-931,35
1657292329021,-150,-848,215
1657292329061,-153,-817,336
1657292329101,-118,-853,334
1657292329141,-113,-887,342
1657292329181,-100,-949,324
1657292329221,-75,-1002,279
1657292329261,-58,-1115,221
1657292329301,-32,-1150,120
1657292329341,-23,-1238,86
1657292329381,-87,-1178,110
1657292329421,-302,-1018,125
1657292329461,-252,-1016,81
1657292329501,-80,-988,28
1657292329541,-183,-940,122
1657292329581,-209,-844,164
1657292329621,-214,-827,127
1657292329661,-245,-869,33
1657292329701,-195,-881,50
1657292329741,-177,-917,96
1657292329781,-187,-970,89
1657292329821,-198,-1029,77
1657292329861,-227,-1116,53
1657292329901,-227,-1183,72
1657292329941,-242,-1305,37
1657292329981,-424,-1238,91
1657292330021,-554,-1117,21
1657292330061,-279,-1011,77
1657292330101,-144,-1025,55
1657292330141,-138,-948,140
1657292330181,-139,-885,325
1657292330221,-131,-873,350
1657292330261,-92,-928,323
1657292330301,-89,-958,301
1657292330341,-50,-967,310
1657292330381,-71,-997,255
1657292330421,-12,-1035,183
1657292330461,9,-1080,95
1657292330501,-66,-1198,-30
1657292330541,-22,-1243,-73
1657292330581,-253,-1064,133
1657292330621,-359,-1002,167
1657292330661,-130,-1002,-6
1657292330701,-123,-947,14
1657292330741,-204,-865,158
1657292330781,-221,-857,151
1657292330821,-198,-864,105
1657292330861,-176,-885,136
1657292330901,-180,-941,125
1657292330941,-191,-937,125
1657292330981,-202,-957,96
1657292331021,-170,-1046,41
1657292331061,-165,-1160,34
1657292331101,-164,-1346,44
1657292331141,-417,-1350,33
1657292331181,-587,-1204,-36
1657292331221,-316,-1049,53
1657292331261,-98,-950,155
1657292331301,-96,-910,241
1657292331341,-124,-883,332
1657292331381,-87,-861,335
1657292331421,-98,-910,272
1657292331461,-115,-903,292
1657292331501,-90,-908,281
1657292331541,-73,-893,261
1657292331581,-50,-959,244
1657292331621,8,-1069,120
1657292331661,-45,-1238,97
1657292331701,-4,-1365,85
1657292331741,-198,-1254,158
1657292331781,-453,-1041,124
1657292331821,-236,-1016,-16
1657292331861,-100,-1007,-39
1657292331901,-157,-927,126
1657292331941,-186,-842,221
1657292331981,-174,-818,160
1657292332021,-131,-846,65
1657292332061,-126,-904,25
1657292332101,-145,-926,73
1657292332141,-108,-876,151
1657292332181,-112,-908,126
1657292332221,-130,-998,63
1657292332261,-84,-1227,71
1657292332301,-83,-1470,50
1657292332341,-468,-1417,17
1657292332381,-504,-1249,127
1657292332421,-181,-1078,157
1657292332461,-147,-928,146
1657292332501,-147,-783,249
1657292332541,-38,-715,279
1657292332581,-12,-768,226
1657292332621,-118,-909,238
1657292332661,-159,-963,280
1657292332701,-164,-991,290
1657292332741,-121,-1015,188
1657292332781,-52,-1046,134
1657292332821,-72,-1143,74
1657292332861,-53,-1333,4
1657292332901,-143,-1304,122
1657292332941,-360,-1045,215
1657292332981,-226,-1018,126
1657292333021,-48,-1030,0
1657292333061,-119,-933,127
1657292333101,-146,-815,213
1657292333141,-161,-814,153
1657292333181,-140,-838,79
1657292333221,-124,-842,109
1657292333261,-163,-877,119
1657292333301,-179,-906,106
1657292333341,-190,-963,57
1657292333381,-170,-1069,37
1657292333421,-168,-1220,30
1657292333461,-106,-1425,176
1657292333501,-301,-1331,352
1657292333541,-524,-1134,263
1657292333581,-146,-958,-4
1657292333621,1,-895,16
1657292333661,-34,-769,143
1657292333701,-96,-790,232
1657292333741,-139,-844,281
1657292333781,-130,-902,215
1657292333821,-122,-1000,211
1657292333861,-134,-1093,164
1657292333901,-139,-1083,226
1657292333941,-61,-1093,240
1657292333981,-64,-1114,193
1657292334021,-5,-1273,110
1657292334061,-89,-1192,105
1657292334101,-294,-1040,163
1657292334141,-125,-1021,82
1657292334181,-49,-982,51
1657292334221,-114,-864,57
1657292334261,-135,-775,98
1657292334301,-140,-778,47
1657292334341,-120,-825,37
1657292334381,-121,-838,121
1657292334421,-83,-946,111
1657292334461,-107,-979,119
1657292334501,-183,-1022,113
1657292334541,-226,-1114,53
1657292334581,-238,-1238,28
1657292334621,-292,-1345,92
1657292334661,-497,-1277,56
1657292334701,-450,-1210,22
1657292334741,-213,-1194,54
1657292334781,-161,-1096,118
1657292334821,-163,-944,247
1657292334861,-95,-814,334
1657292334901,-44,-747,297
1657292334941,-51,-773,241
1657292334981,-54,-831,239
1657292335021,-90,-937,214
1657292335061,-74,-1014,198
1657292335101,-45,-1118,170
1657292335141,-53,-1224,114
1657292335181,23,-1349,72
1657292335221,-244,-1142,233
1657292335261,-431,-1059,174
1657292335301,-137,-1055,32
1657292335341,-93,-1006,47
1657292335381,-181,-928,83
1657292335421,-133,-851,114
1657292335461,-136,-847,49
1657292335501,-115,-830,48
1657292335541,-109,-865,38
1657292335581,-107,-903,68
1657292335621,-120,-940,87
1657292335661,-161,-1025,56
1657292335701,-161,-1102,77
1657292335741,-101,-1289,108
1657292335781,-294,-1339,156
1657292335821,-535,-1222,145
1657292335861,-306,-1077,116
1657292335901,-157,-1045,52
1657292335941,-160,-944,101
1657292335981,-134,-841,243
1657292336021,-89,-819,283
1657292336061,-71,-876,246
1657292336101,-78,-932,255
1657292336141,-77,-956,263
1657292336181,-58,-1003,250
1657292336221,-20,-1115,210
1657292336261,-55,-1171,125
1657292336301,25,-1246,70
1657292336341,-15,-1208,101
1657292336381,-251,-1079,159
1657292336421,-183,-1017,138
1657292336461,-81,-989,47
1657292336501,-109,-933,11
1657292336541,-108,-845,108
1657292336581,-122,-813,86
1657292336621,-90,-840,32
1657292336661,-101,-871,60
1657292336701,-108,-903,82
1657292336741,-133,-934,80
1657292336781,-206,-997,33
1657292336821,-159,-1057,51
1657292336861,-145,-1221,54
1657292336901,-198,-1403,112
1657292336941,-499,-1306,140
1657292336981,-483,-1187,170
1657292337021,-193,-1103,139
1657292337061,-211,-1076,51
1657292337101,-198,-894,187
1657292337141,-109,-776,277
1657292337181,-28,-755,248
1657292337221,-27,-818,217
1657292337261,-64,-919,235
1657292337301,-82,-990,269
1657292337341,-100,-1101,253
1657292337381,-62,-1159,165
1657292337421,-51,-1264,55
1657292337461,-23,-1313,46
1657292337501,-256,-1087,175
1657292337541,-331,-1153,11
1657292337581,-83,-1144,-83
1657292337621,-47,-934,28
1657292337661,-77,-805,60
1657292337701,-63,-757,6
1657292337741,-55,-807,-53
1657292337781,-49,-846,8
1657292337821,-63,-865,70
1657292337861,-60,-905,100
1657292337901,-101,-973,57
1657292337941,-141,-1015,65
1657292337981,-196,-1071,84
1657292338021,-268,-1126,53
1657292338061,-291,-1206,85
1657292338101,-332,-1352,113
1657292338141,-582,-1345,-64
1657292338181,-584,-1217,6
1657292338221,-263,-1151,60
1657292338261,-179,-1110,99
1657292338301,-144,-966,241
1657292338341,-94,-868,357
1657292338381,-38,-866,330
1657292338421,-25,-925,263
1657292338461,-7,-938,296
1657292338501,16,-963,278
1657292338541,34,-993,228
1657292338581,56,-1047,171
1657292338621,86,-1129,48
1657292338661,182,-1321,-25
1657292338701,-43,-1223,115
1657292338741,-475,-1185,72
1657292338781,-196,-1101,-76
1657292338821,-72,-970,-17
1657292338861,-167,-852,106
1657292338901,-133,-792,153
1657292338941,-158,-789,120
1657292338981,-133,-832,106
1657292339021,-134,-872,121
1657292339061,-147,-935,159
1657292339101,-185,-1021,121
1657292339141,-208,-1022,123
1657292339181,-212,-1048,112
1657292339221,-226,-1129,73
1657292339261,-192,-1361,51
1657292339301,-531,-1406,8
1657292339341,-610,-1255,88
1657292339381,-252,-1144,153
1657292339421,-133,-1098,138
1657292339461,-123,-1020,232
1657292339501,-110,-918,350
1657292339541,-10,-896,397
1657292339581,-5,-905,280
1657292339621,13,-887,324
1657292339661,28,-883,259
1657292339701,6,-867,232
1657292339741,41,-901,224
1657292339781,13,-981,111
1657292339821,-28,-1304,-11
1657292339861,56,-1376,45
1657292339901,-356,-1209,155
1657292339941,-448,-1218,92
1657292339981,-106,-1104,35
1657292340021,-137,-875,111
1657292340061,-135,-712,238
1657292340101,-147,-719,224
1657292340141,-175,-796,147
1657292340181,-150,-880,193
1657292340221,-186,-966,142
1657292340261,-218,-970,200
1657292340301,-240,-1007,133
1657292340341,-199,-1094,24
1657292340381,-193,-1204,33
1657292340421,-171,-1300,139
1657292340461,-235,-1421,229
1657292340501,-499,-1281,171
1657292340541,-365,-1053,277
1657292340581,-78,-987,202
1657292340621,-22,-917,144
1657292340661,-87,-813,256
1657292340701,-102,-762,382
1657292340741,-78,-834,366
1657292340781,-115,-920,314
1657292340821,-113,-909,347
1657292340861,-95,-938,355
1657292340901,-125,-1025,273
1657292340941,-118,-1090,210
1657292340981,-98,-1146,134
1657292341021,-201,-1398,75
1657292341061,-484,-1404,360
1657292341101,-985,-1439,284
1657292341141,-918,-1436,141
1657292341181,-905,-1393,-102
1657292341221,-998,-1196,-537
1657292341261,-519,-757,-596
1657292341301,-156,-397,-604
1657292341341,-6,-117,-360
1657292341381,-2,26,-388
1657292341421,-91,130,-86
1657292341461,-296,105,-417
1657292341501,-584,-31,-779
1657292341541,-637,110,-754
1657292341581,-640,145,-923
1657292341621,-540,283,-727
1657292341661,-534,311,-873
1657292341701,-604,262,-914
1657292341741,-464,251,-612
1657292341781,-754,219,-1282
1657292341821,-560,248,-1165
1657292341861,-933,166,-907
1657292341901,-474,324,-521
1657292341941,-323,422,-569
1657292341981,-442,375,-670
1657292342021,-572,406,-725
1657292342061,-644,420,-813
1657292342101,-578,401,-790
1657292342141,-646,336,-903
1657292342181,-510,380,-739
1657292342221,-527,310,-780
1657292342261,-504,303,-822
1657292342301,-678,256,-1013
1657292342341,-795,199,-936
1657292342381,-617,287,-694
1657292342421,-511,320,-765
1657292342461,-598,236,-704
1657292342501,-585,188,-755
1657292342541,-571,115,-743
1657292342581,-561,132,-718
1657292342621,-561,158,-809
1657292342661,-588,213,-754
1657292342701,-566,285,-845
1657292342741,-529,348,-830
1657292342781,-616,335,-844
1657292342821,-689,314,-664
1657292342861,-812,282,-821
1657292342901,-893,255,-1022
1657292342941,-721,370,-745
1657292342981,-629,411,-847
1657292343021,-589,361,-763
1657292343061,-534,337,-608
1657292343101,-404,316,-518
1657292343141,-540,210,-724
1657292343181,-464,189,-609
1657292343221,-234,69,-766
1657292343261,-453,16,-1272
1657292343301,-803,-109,-1391
1657292343341,-643,102,-1259
1657292343381,-490,203,-793
1657292343421,-369,334,-736
1657292343461,-388,335,-723
1657292343501,-448,330,-662
1657292343541,-349,354,-638
1657292343581,-440,351,-699
1657292343621,-597,296,-788
1657292343661,-646,274,-841
1657292343701,-583,278,-770
1657292343741,-593,256,-815
1657292343781,-602,255,-777
1657292343821,-641,250,-827
1657292343861,-578,297,-821
1657292343901,-642,329,-844
1657292343941,-650,334,-847
1657292343981,-751,353,-711
1657292344021,-911,167,-1054
1657292344061,-736,135,-764
1657292344101,-584,203,-625
1657292344141,-524,228,-561
1657292344181,-609,184,-799
1657292344221,-621,158,-738
1657292344261,-550,202,-636
1657292344301,-506,143,-778
1657292344341,-655,83,-1003
1657292344381,-615,119,-870
1657292344421,-548,121,-900
1657292344461,-543,153,-887
1657292344501,-491,191,-792
1657292344541,-434,236,-821
1657292344581,-538,175,-898
1657292344621,-944,-43,-1449
1657292344661,-689,-63,-1064
1657292344701,-390,44,-605
1657292344741,-296,115,-768
1657292344781,-452,117,-779
1657292344821,-548,140,-794
1657292344861,-512,188,-810
1657292344901,-481,220,-781
1657292344941,-506,223,-818
1657292344981,-567,222,-861
1657292345021,-563,249,-844
1657292345061,-639,248,-924
1657292345101,-605,277,-833
1657292345141,-703,212,-762
1657292345181,-860,102,-1014
1657292345221,-626,134,-783
1657292345261,-497,218,-600
1657292345301,-477,210,-753
1657292345341,-604,119,-860
1657292345381,-602,129,-725
1657292345421,-607,132,-775
1657292345461,-539,149,-872
1657292345501,-463,162,-819
1657292345541,-353,180,-880
1657292345581,-518,52,-930
1657292345621,-814,14,-1369
1657292345661,-348,97,-872
1657292345701,-766,164,-1089
1657292345741,-350,361,-738
1657292345781,-652,239,-882
1657292345821,-624,221,-759
1657292345861,-507,274,-644
1657292345901,-517,250,-718
1657292345941,-611,184,-802
1657292345981,-502,238,-631
1657292346021,-465,262,-718
1657292346061,-474,307,-694
1657292346101,-616,272,-857
1657292346141,-622,291,-791
1657292346181,-621,282,-932
1657292346221,-586,347,-803
1657292346261,-735,263,-950
1657292346301,-651,131,-923
1657292346341,-661,90,-744
1657292346381,-732,10,-878
1657292346421,-597,19,-758
1657292346461,-535,95,-737
1657292346501,-530,172,-674
1657292346541,-504,242,-752
1657292346581,-594,196,-859
1657292346621,-589,223,-893
1657292346661,-526,259,-861
1657292346701,-495,280,-867
1657292346741,-478,250,-843
1657292346781,-609,165,-894
1657292346821,-614,126,-930
1657292346861,-922,-189,-1265
1657292346901,-779,-31,-1284
1657292346941,-453,82,-852
1657292346981,-173,257,-448
1657292347021,-447,296,-343
1657292347061,-646,261,-473
1657292347101,-809,258,-565
1657292347141,-781,287,-652
1657292347181,-661,242,-745
1657292347221,-694,178,-927
1657292347261,-579,242,-796
1657292347301,-649,231,-812
1657292347341,-723,232,-747
1657292347381,-805,277,-765
1657292347421,-778,314,-686
1657292347461,-900,256,-836
1657292347501,-913,209,-1079
1657292347541,-739,269,-643
1657292347581,-618,269,-775
1657292347621,-620,172,-697
1657292347661,-633,212,-501
1657292347701,-630,251,-594
1657292347741,-601,263,-676
1657292347781,-627,289,-648
1657292347821,-613,235,-702
1657292347861,-767,104,-926
1657292347901,-827,164,-952
1657292347941,-489,331,-512
1657292347981,-348,510,-655
1657292348021,-337,419,-945
1657292348061,-739,349,-1173
1657292348101,-546,280,-648
1657292348141,-367,150,-649
1657292348181,-655,90,-1015
1657292348221,-769,-104,-1244
1657292348261,-878,-25,-1361
1657292348301,-624,-2,-1008
1657292348341,-391,46,-575
1657292348381,-431,179,-359
1657292348421,-328,365,-392
1657292348461,-484,433,-390
1657292348501,-478,525,-543
1657292348541,-504,551,-703
1657292348581,-628,699,-568
1657292348621,-1298,371,-862
1657292348661,-1276,227,-959
1657292348701,-1038,95,-230
1657292348741,-1161,-165,-320
1657292348781,-906,5,-437
1657292348821,-821,-96,-188
1657292348861,-738,-14,-112
1657292348901,-770,-19,-188
1657292348941,-851,-51,-266
1657292348981,-902,-79,-339
1657292349021,-993,-178,-364
1657292349061,-976,-111,-406
1657292349101,-975,-209,-431
1657292349141,-1048,-278,-479
1657292349181,-1102,-428,-575
1657292349221,-1159,-627,-780
1657292349261,-828,-486,-673
1657292349301,-762,-421,-441
1657292349341,-777,-382,-446
1657292349381,-840,-366,-432
1657292349421,-801,-310,-378
1657292349461,-764,-272,-477
1657292349501,-706,-197,-463
1657292349541,-813,-206,-484
1657292349581,-835,-197,-512
1657292349621,-933,-176,-464
1657292349661,-955,-96,-478
1657292349701,-970,-50,-501
1657292349741,-979,84,-491
1657292349781,-1267,-56,-458
1657292349821,-1430,-375,-579
1657292349861,-1000,-132,-311
1657292349901,-932,-166,-299
1657292349941,-810,-146,-432
1657292349981,-747,-84,-383
1657292350021,-708,-10,-324
1657292350061,-766,-22,-359
1657292350101,-799,-84,-486
1657292350141,-818,-98,-552
1657292350181,-759,-113,-595
1657292350221,-684,-68,-605
1657292350261,-683,-94,-647
1657292350301,-727,-111,-670
1657292350341,-1048,-416,-614
1657292350381,-1067,-495,-646
1657292350421,-794,-205,-437
1657292350461,-795,-235,-449
1657292350501,-836,-292,-637
1657292350541,-844,-259,-575
1657292350581,-766,-230,-553
1657292350621,-682,-158,-533
1657292350661,-757,-220,-593
1657292350701,-830,-298,-612
1657292350741,-876,-305,-609
1657292350781,-812,-263,-603
1657292350821,-816,-212,-590
1657292350861,-924,-209,-583
1657292350901,-1170,-505,-731
1657292350941,-930,-319,-623
1657292350981,-836,-127,-354
1657292351021,-950,-233,-335
1657292351061,-901,-296,-412
1657292351101,-753,-167,-303
1657292351141,-736,-69,-290
1657292351181,-855,-155,-395
1657292351221,-914,-124,-439
1657292351261,-980,-213,-512
1657292351301,-901,-149,-472
1657292351341,-807,-181,-512
1657292351381,-746,-229,-573
1657292351421,-794,-356,-585
1657292351461,-728,-492,-732
1657292351501,-790,-611,-727
1657292351541,-835,-567,-536
1657292351581,-790,-447,-428
1657292351621,-739,-363,-470
1657292351661,-791,-349,-488
1657292351701,-795,-307,-441
1657292351741,-799,-367,-528
1657292351781,-743,-407,-561
1657292351821,-730,-388,-538
1657292351861,-752,-427,-561
1657292351901,-702,-397,-553
1657292351941,-738,-430,-644
1657292351981,-817,-475,-726
1657292352021,-961,-497,-681
1657292352061,-1023,-631,-773
1657292352101,-846,-537,-600
1657292352141,-687,-378,-431
1657292352181,-715,-290,-352
1657292352221,-808,-374,-383
1657292352261,-878,-404,-396
1657292352301,-781,-315,-345
1657292352341,-770,-296,-306
1657292352381,-746,-282,-384
1657292352421,-791,-311,-458
1657292352461,-808,-295,-504
1657292352501,-806,-292,-538
1657292352541,-798,-386,-593
1657292352581,-798,-421,-616
1657292352621,-983,-658,-560
1657292352661,-1015,-799,-692
1657292352701,-726,-571,-480
1657292352741,-574,-404,-264
1657292352781,-704,-487,-373
1657292352821,-772,-548,-480
1657292352861,-724,-505,-441
1657292352901,-645,-415,-439
1657292352941,-598,-308,-388
1657292352981,-652,-332,-414
1657292353021,-791,-431,-503
1657292353061,-865,-448,-474
1657292353101,-956,-506,-537
1657292353141,-996,-490,-568
1657292353181,-935,-487,-762
1657292353221,-1160,-619,-672
1657292353261,-1079,-615,-410
1657292353301,-874,-362,-206
1657292353341,-849,-354,-136
1657292353381,-782,-285,-139
1657292353421,-751,-215,-117
1657292353461,-781,-237,-147
1657292353501,-831,-280,-209
1657292353541,-848,-328,-295
1657292353581,-831,-319,-370
1657292353621,-892,-385,-426
1657292353661,-869,-413,-510
1657292353701,-866,-489,-516
1657292353741,-899,-529,-496
1657292353781,-989,-662,-496
1657292353821,-1096,-801,-467
1657292353861,-798,-632,-473
1657292353901,-499,-412,-265
1657292353941,-677,-500,-315
1657292353981,-826,-606,-405
1657292354021,-770,-524,-361
1657292354061,-690,-419,-272
1657292354101,-713,-382,-263
1657292354141,-749,-414,-347
1657292354181,-825,-427,-408
1657292354221,-824,-388,-366
1657292354261,-875,-441,-471
1657292354301,-966,-516,-554
1657292354341,-1106,-693,-679
1657292354381,-1126,-756,-656
1657292354421,-874,-557,-367
1657292354461,-647,-312,-181
1657292354501,-746,-333,-121
1657292354541,-905,-433,-158
1657292354581,-813,-326,-137
1657292354621,-773,-292,-136
1657292354661,-804,-331,-228
1657292354701,-809,-341,-281
1657292354741,-870,-402,-353
1657292354781,-846,-417,-428
1657292354821,-891,-452,-448
1657292354861,-941,-543,-458
1657292354901,-1020,-652,-460
1657292354941,-1110,-781,-519
1657292354981,-1048,-756,-404
1657292355021,-687,-527,-286
1657292355061,-506,-411,-226
1657292355101,-656,-534,-328
1657292355141,-805,-646,-383
1657292355181,-633,-509,-313
1657292355221,-500,-416,-217
1657292355261,-508,-416,-227
1657292355301,-715,-562,-317
1657292355341,-959,-648,-369
1657292355381,-821,-498,-387
1657292355421,-802,-451,-345
1657292355461,-970,-596,-388
1657292355501,-1010,-643,-397
1657292355541,-856,-613,-320
1657292355581,-961,-704,-206
1657292355621,-975,-716,-154
1657292355661,-923,-727,-221
1657292355701,-909,-717,-254
1657292355741,-811,-557,-152
1657292355781,-690,-425,-86
1657292355821,-659,-416,-91
1657292355861,-739,-482,-197
1657292355901,-804,-491,-224
1657292355941,-869,-523,-176
1657292355981,-907,-705,-338
1657292356021,-858,-724,-418
1657292356061,-787,-756,-328
1657292356101,-910,-910,-348
1657292356141,-960,-966,-360
1657292356181,-556,-622,-237
1657292356221,-336,-489,-177
1657292356261,-446,-504,-243
1657292356301,-749,-630,-186
1657292356341,-993,-714,-142
1657292356381,-864,-571,-115
1657292356421,-733,-500,-176
1657292356461,-688,-529,-196
1657292356501,-731,-442,-177
1657292356541,-779,-449,-131
1657292356581,-1059,-494,-269
1657292356621,-1093,-765,-91
1657292356661,-1134,-849,-118
1657292356701,-1162,-930,-10
1657292356741,-978,-788,-34
1657292356781,-612,-508,-30
1657292356821,-592,-438,51
1657292356861,-741,-498,27
1657292356901,-729,-464,60
1657292356941,-652,-382,21
1657292356981,-712,-444,27
1657292357021,-717,-499,-91
1657292357061,-650,-482,-156
1657292357101,-677,-621,-140
1657292357141,-653,-696,-187
1657292357181,-466,-721,-150
1657292357221,-263,-820,-174
1657292357261,-91,-965,-34
1657292357301,-226,-1219,161
1657292357341,-290,-1206,201
1657292357381,-207,-1299,316
1657292357421,-339,-1370,340
1657292357461,-501,-1287,438
1657292357501,-587,-1131,456
1657292357541,-487,-1090,298
1657292357581,-333,-947,122
1657292357621,-243,-882,77
1657292357661,-190,-801,105
1657292357701,-208,-793,56
1657292357741,-227,-814,99
1657292357781,-305,-974,90
1657292357821,-318,-1197,107
1657292357861,-422,-1441,77
1657292357901,-636,-1444,93
1657292357941,-784,-1269,65
1657292357981,-394,-1101,113
1657292358021,-67,-816,92
1657292358061,-119,-900,216
1657292358101,-142,-814,271
1657292358141,-160,-763,290
1657292358181,-181,-838,285
1657292358221,-215,-879,206
1657292358261,-202,-927,235
1657292358301,-166,-953,267
1657292358341,-167,-1048,259
1657292358381,-96,-1126,204
1657292358421,-103,-1218,199
1657292358461,-62,-1298,104
1657292358501,-137,-1213,200
1657292358541,-385,-951,109
1657292358581,-307,-917,12
1657292358621,-81,-913,-3
1657292358661,-88,-853,136
1657292358701,-167,-789,260
1657292358741,-227,-821,255
1657292358781,-241,-871,168
1657292358821,-243,-918,161
1657292358861,-261,-946,153
1657292358901,-281,-962,122
1657292358941,-254,-1001,91
1657292358981,-219,-1086,25
1657292359021,-191,-1156,102
1657292359061,-167,-1289,177
1657292359101,-337,-1407,198
1657292359141,-658,-1243,127
1657292359181,-475,-1053,92
1657292359221,-232,-931,120
1657292359261,-462,-1196,326
1657292359301,-924,-1346,1140
1657292359341,-326,-1262,1075
1657292359381,-410,-1238,832
1657292359421,-324,-1135,867
1657292359461,-506,-1041,593
1657292359501,-789,-865,411
1657292359541,-846,-778,655
1657292359581,-969,-545,171
1657292359621,-988,-254,113
1657292359661,-1132,-163,43
1657292359701,-941,205,-126
1657292359741,-911,123,212
1657292359781,-726,250,247
1657292359821,-354,355,308
1657292359861,-325,535,226
1657292359901,-281,466,349
1657292359941,-238,483,287
1657292359981,-71,516,196
1657292360021,-194,720,122
1657292360061,-235,766,219
1657292360101,-66,820,-13
1657292360141,-77,846,-57
1657292360181,-76,795,213
1657292360221,-189,937,289
1657292360261,93,955,433
1657292360301,213,779,392
1657292360341,26,527,545
1657292360381,-163,452,311
1657292360421,-280,481,182
1657292360461,-788,479,65
1657292360501,-385,337,5
1657292360541,-615,-19,189
1657292360581,-835,-59,381
1657292360621,-1008,-365,186
1657292360661,-1099,-430,-163
1657292360701,-1522,-891,88
1657292360741,-994,-582,108
1657292360781,-1076,-918,97
1657292360821,-1048,-1130,-10
1657292360861,-401,-1130,-128
1657292360901,-387,-1294,-82
1657292360941,-456,-1202,248
1657292360981,-371,-1155,446
1657292361021,-328,-1215,392
1657292361061,-409,-1175,282
1657292361101,-458,-1057,316
1657292361141,-468,-994,240
1657292361181,-373,-937,151
1657292361221,-293,-906,123
1657292361261,-220,-872,72
1657292361301,-243,-854,128
1657292361341,-231,-933,97
1657292361381,-258,-1076,27
1657292361421,-246,-1253,-54
1657292361461,-208,-1355,-142
1657292361501,-466,-1214,197
1657292361541,-635,-1091,376
1657292361581,-318,-1035,226
1657292361621,-164,-960,187
1657292361661,-133,-899,184
1657292361701,-112,-868,140
1657292361741,-147,-846,209
1657292361781,-91,-826,199
1657292361821,-107,-861,81
1657292361861,-137,-890,103
1657292361901,-113,-957,152
1657292361941,-148,-1133,106
1657292361981,-200,-1224,115
1657292362021,-141,-1386,61
1657292362061,-170,-1321,69
1657292362101,-348,-1040,143
1657292362141,-304,-985,19
1657292362181,-101,-974,1
1657292362221,-113,-912,70
1657292362261,-186,-815,150
1657292362301,-220,-814,79
1657292362341,-215,-842,97
1657292362381,-191,-866,126
1657292362421,-208,-874,124
1657292362461,-239,-882,115
1657292362501,-243,-947,10
1657292362541,-185,-1042,31
1657292362581,-197,-1181,84
1657292362621,-162,-1365,131
1657292362661,-355,-1403,151
1657292362701,-596,-1215,129
1657292362741,-344,-1079,141
1657292362781,-89,-975,93
1657292362821,-83,-898,46
1657292362861,-116,-806,194
1657292362901,-73,-751,243
1657292362941,-87,-797,175
1657292362981,-129,-862,141
1657292363021,-150,-927,113
1657292363061,-205,-1005,95
1657292363101,-194,-1052,120
1657292363141,-107,-1141,103
1657292363181,-124,-1235,54
1657292363221,-71,-1337,67
1657292363261,-124,-1303,109
1657292363301,-288,-1055,96
1657292363341,-264,-978,-4
1657292363381,-46,-962,8
1657292363421,-47,-916,72
1657292363461,-148,-850,120
1657292363501,-171,-837,57
1657292363541,-145,-844,37
1657292363581,-77,-878,63
1657292363621,-104,-917,81
1657292363661,-139,-916,70
1657292363701,-169,-947,46
1657292363741,-151,-1023,23
1657292363781,-136,-1181,-1
1657292363821,-63,-1420,114
1657292363861,-283,-1418,143
1657292363901,-574,-1220,81
1657292363941,-259,-1011,114
1657292363981,-56,-929,128
1657292364021,-116,-844,189
1657292364061,-126,-808,242
1657292364101,-58,-841,245
1657292364141,-24,-862,208
1657292364181,-16,-912,213
1657292364221,-17,-965,210
1657292364261,-45,-1021,196
1657292364301,-75,-1081,146
1657292364341,-90,-1126,44
1657292364381,-125,-1175,25
1657292364421,-44,-1298,-4
1657292364461,-245,-1090,185
1657292364501,-402,-1027,85
1657292364541,-165,-1044,41
1657292364581,-107,-1066,67
1657292364621,-179,-991,118
1657292364661,-133,-874,186
1657292364701,-91,-835,95
1657292364741,-16,-801,75
1657292364781,5,-762,86
1657292364821,-33,-776,95
1657292364861,-45,-875,83
1657292364901,-60,-1052,56
1657292364941,-114,-1284,67
1657292364981,-95,-1513,202
1657292365021,-384,-1507,251
1657292365061,-655,-1230,253
1657292365101,-350,-1051,238
1657292365141,-111,-966,133
1657292365181,-154,-912,125
1657292365221,-171,-845,226
1657292365261,-57,-824,194
1657292365301,-65,-864,182
1657292365341,-57,-884,215
1657292365381,-73,-952,237
1657292365421,-59,-1012,207
1657292365461,-34,-1073,195
1657292365501,28,-1132,158
1657292365541,-31,-1195,143
1657292365581,12,-1294,112
1657292365621,-196,-1132,164
1657292365661,-367,-1017,218
1657292365701,-164,-1033,60
1657292365741,-57,-975,71
1657292365781,-103,-884,180
1657292365821,-134,-834,142
1657292365861,-135,-812,95
1657292365901,-82,-852,40
1657292365941,-75,-893,77
1657292365981,-102,-903,154
1657292366021,-97,-920,144
1657292366061,-88,-1011,84
1657292366101,-127,-1100,56
1657292366141,-129,-1188,114
1657292366181,-148,-1295,181
1657292366221,-259,-1300,172
1657292366261,-487,-1233,125
1657292366301,-319,-1133,98
1657292366341,-148,-1041,109
1657292366381,-150,-989,87
1657292366421,-141,-875,193
1657292366461,-99,-792,290
1657292366501,-49,-785,298
1657292366541,-41,-841,260
1657292366581,-43,-909,282
1657292366621,-41,-991,263
1657292366661,-59,-1112,174
1657292366701,0,-1171,90
1657292366741,-10,-1178,131
1657292366781,17,-1307,76
1657292366821,-148,-1229,163
1657292366861,-418,-1011,160
1657292366901,-250,-1011,-8
1657292366941,-10,-1023,-77
1657292366981,-33,-943,77
1657292367021,-66,-804,215
1657292367061,-84,-758,188
1657292367101,-93,-813,21
1657292367141,-26,-883,-6
1657292367181,-20,-947,87
1657292367221,-88,-962,151
1657292367261,-114,-946,149
1657292367301,-124,-1013,93
1657292367341,-122,-1126,75
1657292367381,-233,-1222,99
1657292367421,-240,-1329,142
1657292367461,-373,-1314,170
1657292367501,-555,-1312,78
1657292367541,-376,-1251,56
1657292367581,-212,-1149,175
1657292367621,-164,-1036,231
1657292367661,-133,-892,312
1657292367701,-11,-797,341
1657292367741,52,-768,296
1657292367781,28,-820,267
1657292367821,1,-869,261
1657292367861,-23,-917,244
1657292367901,-47,-979,230
1657292367941,-27,-1066,193
1657292367981,14,-1129,157
1657292368021,93,-1298,16
1657292368061,-56,-1448,48
1657292368101,-376,-1144,206
1657292368141,-481,-1071,59
1657292368181,-148,-1065,-72
1657292368221,-22,-949,49
1657292368261,-63,-811,179
1657292368301,-60,-741,233
1657292368341,-54,-770,159
1657292368381,-114,-844,79
1657292368421,-135,-897,66
1657292368461,-124,-937,73
1657292368501,-121,-971,79
1657292368541,-111,-1007,93
1657292368581,-117,-1062,106
1657292368621,-128,-1129,131
1657292368661,-103,-1261,184
1657292368701,-208,-1302,198
1657292368741,-387,-1279,171
1657292368781,-438,-1226,90
1657292368821,-177,-1150,78
1657292368861,-185,-1078,157
1657292368901,-101,-971,286
1657292368941,-86,-845,333
1657292368981,-57,-814,369
1657292369021,-15,-821,338
1657292369061,-1,-914,323
1657292369101,21,-967,275
1657292369141,-29,-957,207
1657292369181,-28,-1036,83
1657292369221,73,-1062,31
1657292369261,52,-1156,125
1657292369301,35,-1329,151
1657292369341,-146,-1287,235
1657292369381,-363,-1163,232
1657292369421,-227,-1143,56
1657292369461,-72,-1077,11
1657292369501,-87,-916,119
1657292369541,-92,-771,202
1657292369581,-91,-711,156
1657292369621,-117,-702,90
1657292369661,-124,-771,21
1657292369701,-80,-887,-51
1657292369741,-90,-953,43
1657292369781,-110,-938,217
1657292369821,-58,-1011,267
1657292369861,-71,-1131,255
1657292369901,-167,-1293,206
1657292369941,-184,-1268,313
1657292369981,-358,-1236,278
1657292370021,-493,-1167,67
1657292370061,-420,-1133,-83
1657292370101,-280,-1217,40
1657292370141,-299,-1197,187
1657292370181,-226,-1112,406
1657292370221,-131,-991,515
1657292370261,-43,-891,465
1657292370301,13,-904,395
1657292370341,-5,-873,287
1657292370381,11,-886,281
1657292370421,19,-818,235
1657292370461,42,-855,206
1657292370501,137,-933,100
1657292370541,31,-1033,25
1657292370581,52,-1226,13
1657292370621,-90,-1485,88
1657292370661,-427,-1313,215
1657292370701,-463,-1121,360
1657292370741,-237,-1062,171
1657292370781,-167,-993,102
1657292370821,-190,-847,246
1657292370861,-196,-809,284
1657292370901,-197,-819,277
1657292370941,-215,-857,225
1657292370981,-233,-920,165
1657292371021,-222,-955,137
1657292371061,-149,-1032,83
1657292371101,-124,-1079,64
1657292371141,-54,-1086,156
1657292371181,-76,-1108,194
1657292371221,-51,-1173,211
1657292371261,-40,-1174,271
1657292371301,-239,-1116,240
1657292371341,-426,-1083,183
1657292371381,-189,-1027,191
1657292371421,-98,-1009,225
1657292371461,-153,-972,238
1657292371501,-131,-916,305
1657292371541,-60,-907,296
1657292371581,-60,-898,276
1657292371621,-100,-919,285
1657292371661,-96,-911,234
1657292371701,-74,-906,179
1657292371741,-13,-950,190
1657292371781,27,-1046,139
1657292371821,-40,-1152,134
1657292371861,12,-1252,146
1657292371901,-85,-1309,139
1657292371941,-279,-1118,162
1657292371981,-331,-998,183
1657292372021,-179,-988,32
1657292372061,-105,-1000,80
1657292372101,-92,-896,217
1657292372141,-96,-815,226
1657292372181,-91,-826,150
1657292372221,-76,-869,88
1657292372261,-97,-906,59
1657292372301,-127,-866,144
1657292372341,-140,-848,158
1657292372381,-93,-931,129
1657292372421,-106,-1084,122
1657292372461,-152,-1242,198
1657292372501,-122,-1424,337
1657292372541,-330,-1394,422
1657292372581,-605,-1241,349
1657292372621,-403,-1115,193
1657292372661,-152,-1036,134
1657292372701,-91,-977,133
1657292372741,-75,-889,187
1657292372781,-41,-819,260
1657292372821,-25,-776,306
1657292372861,-52,-779,311
1657292372901,-101,-854,289
1657292372941,-115,-903,230
1657292372981,-112,-976,192
1657292373021,-132,-1055,159
1657292373061,-106,-1096,153
1657292373101,-55,-1204,136
1657292373141,-64,-1275,159
1657292373181,-204,-1125,240
1657292373221,-338,-996,277
1657292373261,-223,-1025,68
1657292373301,-173,-1039,11
1657292373341,-164,-939,177
1657292373381,-140,-839,216
1657292373421,-104,-801,187
1657292373461,-78,-800,148
1657292373501,-74,-834,140
1657292373541,-83,-888,142
1657292373581,-105,-945,140
1657292373621,-134,-1004,127
1657292373661,-108,-1111,160
1657292373701,-129,-1272,180
1657292373741,-177,-1386,282
1657292373781,-353,-1324,377
1657292373821,-572,-1155,274
1657292373861,-384,-1013,154
1657292373901,-163,-936,131
1657292373941,-84,-928,87
1657292373981,-90,-891,168
1657292374021,-123,-869,299
1657292374061,-123,-881,382
1657292374101,-132,-903,393
1657292374141,-141,-927,378
1657292374181,-133,-959,287
1657292374221,-107,-974,228
1657292374261,-51,-1033,158
1657292374301,21,-1070,130
1657292374341,25,-1140,140
1657292374381,27,-1238,169
1657292374421,-150,-1216,208
1657292374461,-340,-1013,243
1657292374501,-288,-982,141
1657292374541,-143,-1004,-22
1657292374581,-99,-959,107
1657292374621,-82,-809,265
1657292374661,-118,-777,304
1657292374701,-141,-827,219
1657292374741,-172,-913,157
1657292374781,-212,-967,154
1657292374821,-187,-942,157
1657292374861,-154,-947,131
1657292374901,-99,-985,110
1657292374941,-73,-1062,133
1657292374981,-122,-1188,151
1657292375021,-119,-1302,237
1657292375061,-268,-1290,315
1657292375101,-507,-1176,249
1657292375141,-460,-1079,112
1657292375181,-218,-1032,114
1657292375221,-148,-1056,101
1657292375261,-146,-1028,232
1657292375301,-181,-937,319
1657292375341,-129,-874,402
1657292375381,-80,-864,409
1657292375421,-92,-893,337
1657292375461,-75,-903,314
1657292375501,-34,-907,283
1657292375541,-15,-947,286
1657292375581,26,-1027,260
1657292375621,87,-1076,182
1657292375661,44,-1218,73
1657292375701,-21,-1303,5
1657292375741,-283,-1190,51
1657292375781,-513,-1115,-7
1657292375821,-310,-996,-74
1657292375861,-136,-1073,-80
1657292375901,-117,-978,122
1657292375941,-179,-901,302
1657292375981,-173,-896,316
1657292376021,-142,-899,334
1657292376061,-178,-912,256
1657292376101,-174,-897,177
1657292376141,-150,-861,119
1657292376181,-113,-868,52
1657292376221,-77,-957,36
1657292376261,-70,-1093,90
1657292376301,-125,-1363,18
1657292376341,-198,-1440,235
1657292376381,-508,-1263,414
1657292376421,-432,-1048,27
1657292376461,-257,-985,97
1657292376501,-30,-936,107
1657292376541,-65,-932,83
1657292376581,-176,-882,228
1657292376621,-114,-845,308
1657292376661,-161,-886,402
1657292376701,-153,-898,379
1657292376741,-107,-931,326
1657292376781,-99,-962,260
1657292376821,-71,-994,180
1657292376861,38,-1057,133
1657292376901,0,-1100,151
1657292376941,-22,-1191,126
1657292376981,-21,-1257,75
1657292377021,-179,-1238,147
1657292377061,-360,-1086,165
1657292377101,-338,-1055,17
1657292377141,-155,-1057,13
1657292377181,-79,-984,90
1657292377221,-150,-891,141
1657292377261,-106,-821,216
1657292377301,-53,-811,180
1657292377341,-48,-832,128
1657292377381,-54,-856,100
1657292377421,-105,-823,165
1657292377461,-95,-855,154
1657292377501,-44,-970,92
1657292377541,-106,-1218,140
1657292377581,-87,-1410,221
1657292377621,-256,-1505,444
1657292377661,-361,-1142,38
1657292377701,-403,-1180,246
1657292377741,-69,-1069,183
1657292377781,-25,-937,149
1657292377821,-38,-797,167
1657292377861,-3,-758,251
1657292377901,15,-804,291
1657292377941,-63,-844,330
1657292377981,-90,-900,310
1657292378021,-107,-917,291
1657292378061,-106,-987,237
1657292378101,-105,-1019,161
1657292378141,-24,-1088,142
1657292378181,-17,-1188,166
1657292378221,-45,-1285,159
1657292378261,-132,-1376,154
1657292378301,-301,-1242,182
1657292378341,-389,-951,262
1657292378381,-236,-970,93
1657292378421,-66,-1019,-1
1657292378461,15,-922,123
1657292378501,-59,-823,239
1657292378541,-77,-766,329
1657292378581,-16,-740,226
1657292378621,-47,-781,186
1657292378661,-89,-820,178
1657292378701,-113,-901,161
1657292378741,-109,-1002,122
1657292378781,-175,-1156,96
1657292378821,-236,-1328,82
1657292378861,-285,-1433,182
1657292378901,-325,-1407,241
1657292378941,-471,-1155,191
1657292378981,-345,-923,174
1657292379021,-130,-886,144
1657292379061,-26,-888,85
1657292379101,-2,-880,84
1657292379141,-90,-851,220
1657292379181,-122,-824,318
1657292379221,-160,-848,333
1657292379261,-194,-916,215
1657292379301,-174,-956,125
1657292379341,-167,-986,56
1657292379381,-138,-1015,45
1657292379421,-83,-1098,92
1657292379461,-18,-1179,131
1657292379501,-54,-1275,163
1657292379541,-109,-1322,179
1657292379581,-231,-1172,207
1657292379621,-267,-944,255
1657292379661,-136,-868,136
1657292379701,-63,-890,99
1657292379741,-53,-860,180
1657292379781,-111,-824,302
1657292379821,-134,-830,316
1657292379861,-123,-861,284
1657292379901,-129,-947,242
1657292379941,-229,-1033,128
1657292379981,-270,-1053,59
1657292380021,-197,-1040,139
1657292380061,-184,-1108,149
1657292380101,-168,-1169,212
1657292380141,-181,-1229,264
1657292380181,-269,-1227,253
1657292380221,-324,-1184,152
1657292380261,-299,-1132,43
1657292380301,-174,-1059,179
1657292380341,-8,-957,223
1657292380381,-23,-809,305
1657292380421,1,-716,406
1657292380461,9,-731,351
1657292380501,-123,-819,275
1657292380541,-158,-889,214
1657292380581,-173,-961,141
1657292380621,-149,-1098,128
1657292380661,-170,-1183,144
1657292380701,-181,-1175,247
1657292380741,-115,-1347,160
1657292380781,-166,-1221,232
1657292380821,-240,-1097,280
1657292380861,-83,-1105,38
1657292380901,-40,-973,8
1657292380941,-47,-812,105
1657292380981,-75,-752,107
1657292381021,-93,-751,67
1657292381061,22,-792,63
1657292381101,29,-823,98
1657292381141,-47,-907,100
1657292381181,-89,-997,110
1657292381221,-123,-1088,132
1657292381261,-199,-1154,112
1657292381301,-267,-1263,167
1657292381341,-128,-1314,303
1657292381381,-444,-1173,325
1657292381421,-550,-1132,205
1657292381461,-217,-1079,220
1657292381501,-185,-1036,161
1657292381541,-296,-993,227
1657292381581,-194,-945,307
1657292381621,-166,-924,308
1657292381661,-156,-903,310
1657292381701,-132,-907,323
1657292381741,-93,-944,275
1657292381781,-49,-997,259
1657292381821,-45,-1019,237
1657292381861,4,-994,228
1657292381901,48,-1145,154
1657292381941,95,-1220,98
1657292381981,-203,-1081,256
1657292382021,-335,-1078,188
1657292382061,-75,-1033,89
1657292382101,-87,-930,116
1657292382141,-143,-863,152
1657292382181,-105,-820,187
1657292382221,-117,-821,170
1657292382261,-108,-859,148
1657292382301,-94,-883,156
1657292382341,-133,-926,184
1657292382381,-188,-1003,141
1657292382421,-222,-1048,138
1657292382461,-209,-1066,177
1657292382501,-184,-1223,166
1657292382541,-213,-1403,149
1657292382581,-557,-1381,146
1657292382621,-546,-1252,200
1657292382661,-198,-1106,257
1657292382701,-74,-985,309
1657292382741,-82,-873,372
1657292382781,-64,-806,372
1657292382821,-14,-779,329
1657292382861,-1,-754,299
1657292382901,-43,-804,326
1657292382941,-153,-876,297
1657292382981,-70,-930,149
1657292383021,-138,-1135,123
1657292383061,-182,-1181,147
1657292383101,-88,-1249,151
1657292383141,1,-1294,189
1657292383181,-220,-1153,69
1657292383221,-249,-1103,-21
1657292383261,-73,-1070,84
1657292383301,-26,-923,211
1657292383341,-140,-804,265
1657292383381,-148,-768,172
1657292383421,-155,-747,120
1657292383461,-127,-756,141
1657292383501,-120,-839,158
1657292383541,-206,-967,189
1657292383581,-282,-1157,173
1657292383621,-306,-1213,225
1657292383661,-222,-1110,289
1657292383701,-92,-1175,214
1657292383741,-113,-1253,170
1657292383781,-416,-1221,222
1657292383821,-369,-1223,179
1657292383861,-147,-1183,256
1657292383901,-103,-1030,289
1657292383941,-101,-849,326
1657292383981,-25,-757,369
1657292384021,20,-702,332
1657292384061,19,-723,249
1657292384101,-33,-800,206
1657292384141,-100,-857,186
1657292384181,-123,-975,165
1657292384221,-131,-1099,161
1657292384261,-153,-1179,180
1657292384301,-102,-1295,222
1657292384341,-113,-1358,233
1657292384381,-348,-1138,223
1657292384421,-402,-1064,106
1657292384461,-93,-1101,82
1657292384501,11,-989,171
1657292384541,-91,-892,273
1657292384581,-88,-862,232
1657292384621,-27,-848,202
1657292384661,-28,-803,166
1657292384701,50,-753,161
1657292384741,63,-743,203
1657292384781,2,-859,109
1657292384821,-11,-958,68
1657292384861,-30,-1082,163
1657292384901,-132,-1277,210
1657292384941,-215,-1557,264
1657292384981,-639,-1679,195
1657292385021,-891,-1414,2
1657292385061,-392,-1198,130
1657292385101,33,-1012,146
1657292385141,-84,-969,161
1657292385181,-50,-891,326
1657292385221,-41,-874,349
1657292385261,-26,-904,352
1657292385301,-57,-944,377
1657292385341,-61,-945,381
1657292385381,-45,-934,345
1657292385421,-16,-953,263
1657292385461,55,-1020,213
1657292385501,84,-1042,160
1657292385541,115,-1188,67
1657292385581,81,-1271,-8
1657292385621,-191,-1070,99
1657292385661,-292,-988,146
1657292385701,-134,-979,34
1657292385741,-123,-980,97
1657292385781,-187,-923,175
1657292385821,-238,-894,192
1657292385861,-246,-923,171
1657292385901,-191,-931,170
1657292385941,-179,-929,201
1657292385981,-188,-905,160
1657292386021,-192,-978,103
1657292386061,-198,-1086,94
1657292386101,-206,-1207,135
1657292386141,-122,-1344,239
1657292386181,-253,-1333,324
1657292386221,-464,-1194,252
1657292386261,-253,-1108,166
1657292386301,-46,-1008,167
1657292386341,-63,-907,191
1657292386381,-45,-839,264
1657292386421,3,-836,250
1657292386461,-24,-852,254
1657292386501,-55,-858,311
1657292386541,-127,-882,261
1657292386581,-121,-903,179
1657292386621,-124,-908,120
1657292386661,-86,-996,125
1657292386701,-89,-1074,131
1657292386741,-34,-1294,124
1657292386781,-44,-1368,175
1657292386821,-246,-1121,326
1657292386861,-293,-1038,231
1657292386901,-129,-1017,71
1657292386941,-64,-930,102
1657292386981,-95,-809,187
1657292387021,-120,-783,186
1657292387061,-113,-828,150
1657292387101,-115,-877,145
1657292387141,-135,-925,147
1657292387181,-162,-971,136
1657292387221,-189,-1001,112
1657292387261,-199,-1059,81
1657292387301,-187,-1107,114
1657292387341,-100,-1235,168
1657292387381,-86,-1363,278
1657292387421,-387,-1272,280
1657292387461,-463,-1163,213
1657292387501,-184,-1076,199
1657292387541,-105,-992,201
1657292387581,-73,-892,229
1657292387621,-8,-799,320
1657292387661,31,-743,332
1657292387701,23,-745,352
1657292387741,-36,-820,370
1657292387781,-93,-891,320
1657292387821,-125,-964,282
1657292387861,-181,-1102,193
1657292387901,-147,-1137,57
1657292387941,-10,-1169,104
1657292387981,-9,-1327,80
1657292388021,-80,-1314,224
1657292388061,-391,-1112,242
1657292388101,-425,-1152,26
1657292388141,-114,-1123,-51
1657292388181,-45,-952,119
1657292388221,-42,-791,243
1657292388261,-39,-720,250
1657292388301,-48,-684,218
1657292388341,-25,-720,187
1657292388381,-83,-802,159
1657292388421,-99,-906,154
1657292388461,-151,-1017,118
1657292388501,-171,-1085,153
1657292388541,-171,-1160,140
1657292388581,-203,-1259,121
1657292388621,-202,-1313,219
1657292388661,-336,-1312,217
1657292388701,-435,-1196,109
1657292388741,-352,-1110,24
1657292388781,-191,-1066,119
1657292388821,-96,-1023,170
1657292388861,-160,-970,139
1657292388901,-135,-875,317
1657292388941,-44,-795,440
1657292388981,-34,-823,358
1657292389021,-92,-897,298
1657292389061,-26,-885,274
1657292389101,20,-889,271
1657292389141,4,-1027,213
1657292389181,-18,-1119,190
1657292389221,-53,-1220,175
1657292389261,-59,-1254,116
1657292389301,-191,-1134,191
1657292389341,-433,-1040,101
1657292389381,-321,-1086,-91
1657292389421,-112,-1054,35
1657292389461,-139,-933,205
1657292389501,-161,-874,263
1657292389541,-140,-863,126
1657292389581,-73,-869,66
1657292389621,-53,-864,92
1657292389661,-73,-857,127
1657292389701,-85,-841,164
1657292389741,-103,-894,111
1657292389781,-91,-1026,87
1657292389821,-68,-1363,127
1657292389861,-100,-1510,286
1657292389901,-122,-1308,570
1657292389941,-314,-1058,328
1657292389981,-329,-949,10
1657292390021,-184,-843,42
1657292390061,-173,-884,114
1657292390101,-234,-891,234
1657292390141,-180,-863,367
1657292390181,-141,-899,349
1657292390221,-173,-978,273
1657292390261,-205,-1058,226
1657292390301,-154,-1062,203
1657292390341,-64,-1095,247
1657292390381,-15,-1146,222
1657292390421,49,-1165,249
1657292390461,109,-1280,214
1657292390501,109,-1242,233
1657292390541,-144,-984,270
1657292390581,-294,-914,76
1657292390621,-48,-930,-38
1657292390661,44,-871,55
1657292390701,-47,-813,170
1657292390741,-104,-822,171
1657292390781,-101,-825,174
1657292390821,-78,-833,147
1657292390861,-67,-841,172
1657292390901,-86,-859,197
1657292390941,-120,-909,195
1657292390981,-181,-1048,155
1657292391021,-172,-1218,155
1657292391061,-260,-1377,102
1657292391101,-234,-1407,194
1657292391141,-205,-1344,95
1657292391181,-505,-1285,89
1657292391221,-395,-1132,90
1657292391261,-151,-1016,110
1657292391301,-62,-1056,171
1657292391341,-55,-957,240
1657292391381,-65,-844,342
1657292391421,-2,-798,379
1657292391461,31,-849,325
1657292391501,-15,-913,283
1657292391541,-42,-917,343
1657292391581,-22,-936,329
1657292391621,49,-1018,278
1657292391661,64,-1093,195
1657292391701,57,-1257,57
1657292391741,79,-1401,-15
1657292391781,-249,-1175,200
1657292391821,-435,-1049,191
1657292391861,-152,-1093,-37
1657292391901,-48,-1010,-13
1657292391941,-117,-855,176
1657292391981,-90,-779,219
1657292392021,-101,-806,152
1657292392061,-82,-838,123
1657292392101,-90,-885,170
1657292392141,-113,-921,167
1657292392181,-134,-964,125
1657292392221,-119,-1017,87
1657292392261,-107,-1101,108
1657292392301,-111,-1211,139
1657292392341,-130,-1318,193
1657292392381,-356,-1288,186
1657292392421,-510,-1179,83
1657292392461,-240,-1132,61
1657292392501,-96,-1084,108
1657292392541,-125,-980,173
1657292392581,-138,-879,297
1657292392621,-77,-807,328
1657292392661,-37,-795,300
1657292392701,-60,-839,281
1657292392741,-52,-940,273
1657292392781,-51,-1017,280
1657292392821,-22,-1062,283
1657292392861,2,-1111,189
1657292392901,62,-1197,122
1657292392941,90,-1267,100
1657292392981,-163,-1141,155
1657292393021,-396,-1042,33
1657292393061,-218,-1008,-58
1657292393101,-63,-991,0
1657292393141,-78,-922,129
1657292393181,-99,-862,235
1657292393221,-138,-842,242
1657292393261,-160,-893,158
1657292393301,-152,-922,103
1657292393341,-101,-931,111
1657292393381,-116,-942,136
1657292393421,-117,-941,124
1657292393461,-78,-1005,140
1657292393501,-109,-1090,109
1657292393541,-177,-1223,97
1657292393581,-162,-1363,172
1657292393621,-416,-1301,141
1657292393661,-619,-1196,29
1657292393701,-235,-1095,125
1657292393741,-98,-1020,148
1657292393781,-93,-942,227
1657292393821,-136,-883,294
1657292393861,-101,-855,299
1657292393901,-28,-887,300
1657292393941,-93,-899,292
1657292393981,-53,-934,313
1657292394021,-65,-965,325
1657292394061,-39,-1012,330
1657292394101,40,-1064,307
1657292394141,82,-1189,199
1657292394181,89,-1343,-68
1657292394221,-278,-1167,-4
1657292394261,-403,-1093,-33
1657292394301,-105,-1046,-7
1657292394341,-92,-974,51
1657292394381,-139,-886,97
1657292394421,-188,-767,150
1657292394461,-109,-808,145
1657292394501,-136,-885,110
1657292394541,-171,-922,112
1657292394581,-195,-942,113
1657292394621,-142,-943,99
1657292394661,-120,-954,127
1657292394701,-98,-1013,176
1657292394741,-134,-1113,142
1657292394781,-122,-1287,151
1657292394821,-308,-1306,171
1657292394861,-604,-1228,102
1657292394901,-375,-1145,50
1657292394941,-183,-1101,70
1657292394981,-175,-1070,168
1657292395021,-176,-908,301
1657292395061,-129,-805,382
1657292395101,-69,-792,367
1657292395141,-65,-864,257
1657292395181,-69,-913,257
1657292395221,-112,-1004,276
1657292395261,-86,-1006,288
1657292395301,49,-1059,325
1657292395341,59,-1259,190
1657292395381,30,-1331,132
1657292395421,-238,-1166,227
1657292395461,-232,-1158,-24
1657292395501,15,-1100,-58
1657292395541,37,-893,24
1657292395581,1,-789,91
1657292395621,-61,-793,37
1657292395661,-20,-790,73
1657292395701,7,-813,158
1657292395741,-20,-861,175
1657292395781,-81,-942,158
1657292395821,-114,-1043,99
1657292395861,-143,-1080,66
1657292395901,-183,-1099,71
1657292395941,-265,-1100,60
1657292395981,-247,-1211,59
1657292396021,-162,-1285,185
1657292396061,-344,-1267,231
1657292396101,-504,-1233,157
1657292396141,-350,-1215,67
1657292396181,-204,-1176,150
1657292396221,-126,-1061,211
1657292396261,-115,-941,296
1657292396301,-32,-893,346
1657292396341,60,-840,359
1657292396381,17,-850,346
1657292396421,-52,-881,344
1657292396461,-62,-896,323
1657292396501,-51,-944,272
1657292396541,16,-975,191
1657292396581,62,-1028,147
1657292396621,133,-1347,-12
1657292396661,-11,-1381,62
1657292396701,-479,-1228,198
1657292396741,-390,-1150,22
1657292396781,-106,-1055,45
1657292396821,-133,-892,127
1657292396861,-178,-802,124
1657292396901,-122,-779,268
1657292396941,-194,-774,222
1657292396981,-171,-851,151
1657292397021,-187,-935,183
1657292397061,-180,-999,152
1657292397101,-186,-1056,133
1657292397141,-171,-1057,155
1657292397181,-116,-1092,194
1657292397221,-183,-1183,135
1657292397261,-129,-1257,166
1657292397301,-330,-1283,177
1657292397341,-413,-1213,118
1657292397381,-411,-1129,58
1657292397421,-159,-1036,139
1657292397461,-328,-1126,199
1657292397501,-517,-1175,415
1657292397541,-630,-1240,823
1657292397581,-941,-1492,899
1657292397621,-1254,-1817,809
1657292397661,-1925,-2046,652
1657292397701,-1157,-1687,457
1657292397741,-514,-949,307
1657292397781,-706,-898,-304
1657292397821,-370,-685,-358
1657292397861,-65,-74,-307
1657292397901,272,449,-123
1657292397941,197,607,154
1657292397981,-321,603,229
1657292398021,-217,629,247
1657292398061,-228,699,173
1657292398101,-87,741,262
1657292398141,-48,667,361
1657292398181,-23,909,-111
1657292398221,-152,844,4
1657292398261,-55,885,65
1657292398301,-8,764,197
1657292398341,-257,757,-73
1657292398381,-140,856,-171
1657292398421,-255,906,-227
1657292398461,-340,741,-7
1657292398501,-302,935,781
1657292398541,-113,1057,889
1657292398581,230,1098,826
1657292398621,11,1319,720
1657292398661,-26,1146,345
1657292398701,-38,1124,465
1657292398741,-121,1012,201
1657292398781,-215,1002,93
1657292398821,-236,856,-59
1657292398861,-214,716,-13
1657292398901,-177,658,-139
1657292398941,-55,584,-408
1657292398981,-154,455,-154
1657292399021,-252,564,-226
1657292399061,-356,52,270
1657292399101,-385,-339,390
1657292399141,-160,-589,314
1657292399181,-395,-1526,390
1657292399221,-394,-1611,308
1657292399261,-323,-1784,144
1657292399301,-491,-2046,252
1657292399341,-648,-2046,587
1657292399381,-870,-2038,1433
1657292399421,-1118,-1623,1092
1657292399461,-512,-1185,517
1657292399501,-56,-931,92
1657292399541,-227,-758,-191
1657292399581,-377,-839,80
1657292399621,-223,-830,250
1657292399661,-249,-984,243
1657292399701,-263,-1128,255
1657292399741,-274,-1321,253
1657292399781,-287,-1375,215
1657292399821,-383,-1217,254
1657292399861,-469,-1021,247
1657292399901,-286,-933,273
1657292399941,-140,-849,295
1657292399981,-219,-906,308
1657292400021,-531,-1090,371
1657292400061,-636,-1108,484
1657292400101,-439,-966,517
1657292400141,-267,-889,495
1657292400181,-189,-725,460
1657292400221,-708,-1075,530
1657292400261,-858,-1202,380
1657292400301,-734,-1206,223
1657292400341,-646,-993,-17
1657292400381,-594,-957,-429
1657292400421,-1093,-1090,-522
1657292400461,-915,-475,73
1657292400501,-1586,-390,737
1657292400541,-905,58,550
1657292400581,-546,350,-166
1657292400621,-303,259,-352
1657292400661,-240,317,-547
1657292400701,-60,-39,-531
1657292400741,188,165,-471
1657292400781,111,145,-378
1657292400821,-535,-37,-1073
1657292400861,-700,435,-1862
1657292400901,-646,383,-1343
1657292400941,-330,434,-718
1657292400981,-129,670,-509
1657292401021,-183,648,-558
1657292401061,-374,706,-468
1657292401101,-690,321,-496
1657292401141,-890,231,-645
1657292401181,-823,268,-522
1657292401221,-788,348,-639
1657292401261,-778,172,-513
1657292401301,-919,63,-723
1657292401341,-768,73,-505
1657292401381,-724,88,-569
1657292401421,-553,56,-684
1657292401461,-503,24,-608
1657292401501,-767,-144,-678
1657292401541,-726,-169,-610
1657292401581,-810,-343,-717
1657292401621,-694,-320,-767
1657292401661,-809,-643,-876
1657292401701,-793,-529,-753
1657292401741,-853,-691,-514
1657292401781,-664,-498,-593
1657292401821,-685,-669,-664
1657292401861,-620,-560,-678
1657292401901,-485,-539,-508
1657292401941,-495,-562,-452
1657292401981,-311,-887,-770
1657292402021,-205,-829,-1043
1657292402061,42,-742,-911
1657292402101,48,-632,-689
1657292402141,23,-730,-705
1657292402181,-94,-739,-835
1657292402221,-103,-704,-740
1657292402261,-69,-807,-622
1657292402301,-368,-1047,-907
1657292402341,-283,-682,-949
1657292402381,-175,-639,-613
1657292402421,-122,-599,-684
1657292402461,-132,-556,-747
1657292402501,-103,-581,-652
1657292402541,-94,-554,-680
1657292402581,-74,-586,-714
1657292402621,-5,-562,-699
1657292402661,-14,-624,-719
1657292402701,-3,-663,-831
1657292402741,18,-637,-737
1657292402781,90,-630,-650
1657292402821,132,-688,-630
1657292402861,169,-670,-553
1657292402901,18,-847,-169
1657292402941,-135,-921,-2
1657292402981,5,-892,136
1657292403021,-225,-1221,321
1657292403061,-430,-1255,322
1657292403101,-329,-1154,519
1657292403141,-304,-1087,726
1657292403181,-371,-1189,758
1657292403221,-528,-1350,434
1657292403261,-602,-1312,123
1657292403301,-620,-1259,88
1657292403341,-290,-1122,137
1657292403381,-206,-1129,-46
1657292403421,-229,-1089,-87
1657292403461,-141,-1204,96
1657292403501,-173,-1300,81
1657292403541,-366,-1348,153
1657292403581,-474,-1245,55
1657292403621,-271,-1211,150
1657292403661,-35,-1137,189
1657292403701,81,-949,272
1657292403741,132,-875,331
1657292403781,230,-800,216
1657292403821,176,-750,180
1657292403861,33,-743,219
1657292403901,-106,-894,213
1657292403941,-192,-928,149
1657292403981,-200,-964,204
1657292404021,-160,-1036,141
1657292404061,-166,-1131,83
1657292404101,-118,-1288,74
1657292404141,19,-1378,83
1657292404181,-276,-1116,283
1657292404221,-452,-1042,173
1657292404261,-236,-1025,-141
1657292404301,-146,-947,2
1657292404341,-277,-958,213
1657292404381,-440,-964,126
1657292404421,-440,-925,-12
1657292404461,-228,-834,-45
1657292404501,-129,-729,24
1657292404541,-215,-746,100
1657292404581,-170,-792,119
1657292404621,-274,-977,130
1657292404661,-247,-1162,63
1657292404701,-197,-1272,180
1657292404741,-341,-1276,299
1657292404781,-422,-1080,245
1657292404821,-432,-1084,116
1657292404861,-224,-1054,-24
1657292404901,-265,-888,114
1657292404941,-198,-772,247
1657292404981,-165,-782,296
1657292405021,-257,-974,256
1657292405061,-336,-1053,224
1657292405101,-216,-1006,226
1657292405141,-183,-976,191
1657292405181,-122,-960,149
1657292405221,-106,-1001,117
1657292405261,-69,-1044,118
1657292405301,-49,-1169,128
1657292405341,-221,-1229,190
1657292405381,-447,-1180,282
1657292405421,-297,-1158,134
1657292405461,-153,-1005,110
1657292405501,-140,-882,198
1657292405541,-209,-837,162
1657292405581,-211,-829,148
1657292405621,-138,-814,146
1657292405661,-123,-854,112
1657292405701,-134,-925,106
1657292405741,-198,-901,123
1657292405781,-202,-941,86
1657292405821,-216,-1026,81
1657292405861,-223,-1103,189
1657292405901,-33,-1342,192
1657292405941,-219,-1223,491
1657292405981,-340,-1043,267
1657292406021,-362,-1049,-15
1657292406061,-180,-1021,65
1657292406101,-159,-972,177
1657292406141,-122,-877,332
1657292406181,-54,-893,322
1657292406221,-65,-885,266
1657292406261,-76,-913,218
1657292406301,-57,-1020,108
1657292406341,-174,-1031,32
1657292406381,-203,-1030,29
1657292406421,-121,-1039,50
1657292406461,-55,-1110,104
1657292406501,-102,-1193,94
1657292406541,-48,-1360,105
1657292406581,-7,-1337,177
1657292406621,-327,-1013,306
1657292406661,-311,-909,138
1657292406701,-80,-877,-2
1657292406741,-70,-851,122
1657292406781,-117,-789,278
1657292406821,-133,-823,275
1657292406861,-144,-872,191
1657292406901,-123,-896,151
1657292406941,-129,-928,103
1657292406981,-160,-973,90
1657292407021,-168,-1014,68
1657292407061,-139,-1077,17
1657292407101,-143,-1157,9
1657292407141,-127,-1235,50
1657292407181,-33,-1290,139
1657292407221,-272,-1282,118
1657292407261,-418,-1189,105
1657292407301,-176,-1062,101
1657292407341,-149,-1000,76
1657292407381,-126,-911,183
1657292407421,-96,-821,273
1657292407461,-34,-782,273
1657292407501,-21,-824,264
1657292407541,-132,-917,241
1657292407581,-112,-969,238
1657292407621,-127,-1047,267
1657292407661,-109,-1078,236
1657292407701,-30,-1102,220
1657292407741,-12,-1115,134
1657292407781,43,-1297,8
1657292407821,-59,-1311,-90
1657292407861,-233,-1064,145
1657292407901,-53,-1003,123
1657292407941,51,-977,-54
1657292407981,-44,-862,41
1657292408021,-30,-854,162
1657292408061,-54,-863,139
1657292408101,-37,-890,82
1657292408141,-94,-890,18
1657292408181,-148,-865,-6
1657292408221,-191,-906,-5
1657292408261,-198,-1002,13
1657292408301,-224,-1131,94
1657292408341,-288,-1211,153
1657292408381,-265,-1395,132
1657292408421,-288,-1417,148
1657292408461,-530,-1229,68
1657292408501,-352,-1135,98
1657292408541,-129,-1067,89
1657292408581,-26,-985,21
1657292408621,-45,-901,87
1657292408661,-78,-852,203
1657292408701,-74,-838,225
1657292408741,-107,-893,202
1657292408781,-111,-937,178
1657292408821,-110,-950,158
1657292408861,-93,-964,98
1657292408901,-41,-982,62
1657292408941,-17,-1011,10
1657292408981,-14,-1137,-17
1657292409021,33,-1272,-59
1657292409061,-201,-1202,85
1657292409101,-424,-1125,100
1657292409141,-283,-1108,-106
1657292409181,-202,-1071,-92
1657292409221,-177,-932,45
1657292409261,-195,-842,128
1657292409301,-160,-826,49
1657292409341,-93,-839,44
1657292409381,-128,-894,50
1657292409421,-177,-968,29
1657292409461,-200,-1034,8
1657292409501,-233,-1071,0
1657292409541,-170,-1105,43
1657292409581,-202,-1164,27
1657292409621,-133,-1203,56
1657292409661,-176,-1245,87
1657292409701,-395,-1172,105
1657292409741,-382,-1056,161
1657292409781,-121,-1011,166
1657292409821,-56,-966,151
1657292409861,-108,-908,183
1657292409901,-100,-845,248
1657292409941,-80,-855,271
1657292409981,-108,-898,220
1657292410021,-141,-908,166
1657292410061,-112,-894,167
1657292410101,-90,-945,103
1657292410141,-113,-1066,48
1657292410181,-108,-1151,12
1657292410221,-101,-1229,45
1657292410261,-72,-1367,14
1657292410301,-238,-1230,156
1657292410341,-402,-1030,194
1657292410381,-224,-1026,54
1657292410421,-106,-991,-6
1657292410461,-87,-893,79
1657292410501,-107,-822,123
1657292410541,-98,-806,93
1657292410581,-39,-798,92
1657292410621,-68,-827,74
1657292410661,-140,-878,82
1657292410701,-135,-883,93
1657292410741,-115,-914,94
1657292410781,-66,-1005,124
1657292410821,-122,-1110,138
1657292410861,-207,-1281,96
1657292410901,-274,-1503,-6
1657292410941,-524,-1431,-8
1657292410981,-621,-1264,87
1657292411021,-273,-1101,178
1657292411061,-132,-998,218
1657292411101,-86,-893,284
1657292411141,-73,-799,301
1657292411181,-58,-759,281
1657292411221,-74,-786,255
1657292411261,-113,-854,243
1657292411301,-144,-903,266
1657292411341,-180,-955,230
1657292411381,-169,-1042,171
1657292411421,-160,-1134,146
1657292411461,-237,-1253,82
1657292411501,-111,-1432,0
1657292411541,-115,-1297,108
1657292411581,-325,-1063,126
1657292411621,-181,-1065,-83
1657292411661,-21,-993,-211
1657292411701,-52,-857,-72
1657292411741,-72,-762,26
1657292411781,-67,-741,64
1657292411821,-40,-770,52
1657292411861,-42,-812,102
1657292411901,-53,-852,141
1657292411941,-82,-925,146
1657292411981,-175,-1012,90
1657292412021,-209,-1113,65
1657292412061,-254,-1206,113
1657292412101,-398,-1304,96
1657292412141,-394,-1382,144
1657292412181,-533,-1386,93
1657292412221,-639,-1216,-2
1657292412261,-454,-1077,-3
1657292412301,-224,-1035,67
1657292412341,-123,-1060,98
1657292412381,-102,-976,258
1657292412421,-89,-902,356
1657292412461,-55,-854,369
1657292412501,-37,-866,343
1657292412541,-50,-869,292
1657292412581,-60,-892,212
1657292412621,-79,-920,150
1657292412661,-65,-996,100
1657292412701,-10,-1106,29
1657292412741,17,-1242,-5
1657292412781,54,-1343,24
1657292412821,-222,-1210,104
1657292412861,-527,-1094,-10
1657292412901,-294,-1039,-124
1657292412941,-106,-1017,-5
1657292412981,-137,-944,148
1657292413021,-183,-869,197
1657292413061,-181,-832,180
1657292413101,-142,-849,83
1657292413141,-118,-850,60
1657292413181,-113,-880,86
1657292413221,-129,-950,62
1657292413261,-177,-1006,34
1657292413301,-229,-1049,42
1657292413341,-237,-1116,53
1657292413381,-269,-1158,70
1657292413421,-188,-1240,137
1657292413461,-279,-1255,131
1657292413501,-402,-1160,75
1657292413541,-436,-1079,35
1657292413581,-204,-1048,81
1657292413621,-97,-1027,116
1657292413661,-162,-941,175
1657292413701,-155,-853,265
1657292413741,-80,-840,275
1657292413781,-30,-851,239
1657292413821,-41,-851,230
1657292413861,-52,-873,187
1657292413901,-115,-951,133
1657292413941,-121,-1096,29
1657292413981,-94,-1209,0
1657292414021,4,-1436,44
1657292414061,-213,-1303,236
1657292414101,-542,-1159,56
1657292414141,-294,-1138,-133
1657292414181,-24,-1055,-117
1657292414221,-102,-914,57
1657292414261,-114,-801,71
1657292414301,-92,-743,21
1657292414341,-69,-724,-18
1657292414381,-39,-770,-39
1657292414421,-43,-873,-12
1657292414461,-164,-964,50
1657292414501,-271,-974,82
1657292414541,-217,-999,84
1657292414581,-200,-1095,27
1657292414621,-302,-1239,-20
1657292414661,-286,-1310,87
1657292414701,-356,-1296,272
1657292414741,-620,-1183,225
1657292414781,-486,-1048,93
1657292414821,-187,-997,99
1657292414861,-110,-959,121
1657292414901,-209,-898,280
1657292414941,-165,-847,355
1657292414981,-131,-883,237
1657292415021,-177,-904,146
1657292415061,-182,-905,165
1657292415101,-151,-957,99
1657292415141,-57,-1068,72
1657292415181,-98,-1142,43
1657292415221,-144,-1166,24
1657292415261,50,-1341,80
1657292415301,-198,-1229,128
1657292415341,-450,-1093,97
1657292415381,-149,-1091,-14
1657292415421,-23,-985,-67
1657292415461,-190,-860,-29
1657292415501,-130,-773,9
1657292415541,-80,-744,43
1657292415581,-55,-745,31
1657292415621,-57,-763,117
1657292415661,-167,-855,96
1657292415701,-205,-975,79
1657292415741,-282,-1054,58
1657292415781,-385,-1139,-2
1657292415821,-440,-1186,-1
1657292415861,-410,-1292,38
1657292415901,-474,-1304,130
1657292415941,-599,-1277,140
1657292415981,-513,-1170,88
1657292416021,-235,-1091,177
1657292416061,-1,-1035,231
1657292416101,-3,-855,270
1657292416141,-114,-793,351
1657292416181,-31,-797,335
1657292416221,-107,-862,207
1657292416261,-162,-925,91
1657292416301,-137,-997,70
1657292416341,-176,-1096,77
1657292416381,-150,-1127,78
1657292416421,72,-1268,168
1657292416461,130,-1289,193
1657292416501,-269,-1131,243
1657292416541,-452,-1230,-115
1657292416581,-141,-1142,-151
1657292416621,-81,-882,78
1657292416661,-142,-792,52
1657292416701,-131,-751,12
1657292416741,-74,-735,29
1657292416781,-5,-747,120
1657292416821,-84,-844,127
1657292416861,-245,-960,71
1657292416901,-411,-1069,-69
1657292416941,-376,-1113,-35
1657292416981,-262,-1149,124
1657292417021,-221,-1162,182
1657292417061,-93,-1266,233
1657292417101,-262,-1240,303
1657292417141,-590,-1216,130
1657292417181,-391,-1132,107
1657292417221,-126,-1035,153
1657292417261,-70,-902,162
1657292417301,-48,-798,241
1657292417341,-57,-764,263
1657292417381,-141,-847,181
1657292417421,-158,-911,151
1657292417461,-151,-919,174
1657292417501,-189,-907,103
1657292417541,-194,-925,84
1657292417581,-172,-1036,74
1657292417621,-107,-1228,10
1657292417661,-8,-1544,12
1657292417701,-228,-1391,321
1657292417741,-500,-1164,255
1657292417781,-315,-1060,-20
1657292417821,-81,-936,-92
1657292417861,-76,-834,1
1657292417901,-89,-766,19
1657292417941,-60,-706,43
1657292417981,-50,-698,50
1657292418021,-71,-819,24
1657292418061,-121,-940,30
1657292418101,-200,-1006,67
1657292418141,-235,-992,124
1657292418181,-234,-999,91
1657292418221,-248,-1023,37
1657292418261,-259,-1102,33
1657292418301,-237,-1271,125
1657292418341,-391,-1315,192
1657292418381,-625,-1305,145
1657292418421,-356,-1212,127
1657292418461,-157,-1069,140
1657292418501,-167,-941,132
1657292418541,-177,-852,176
1657292418581,-130,-811,235
1657292418621,-112,-835,197
1657292418661,-136,-872,186
1657292418701,-144,-925,217
1657292418741,-117,-1012,223
1657292418781,-126,-1067,199
1657292418821,-85,-1121,165
1657292418861,-43,-1205,106
1657292418901,42,-1308,86
1657292418941,-197,-1164,222
1657292418981,-393,-1053,177
1657292419021,-196,-1059,-93
1657292419061,-78,-959,-111
1657292419101,-95,-827,50
1657292419141,-83,-758,84
1657292419181,-93,-770,73
1657292419221,-115,-830,56
1657292419261,-100,-879,60
1657292419301,-164,-910,95
1657292419341,-215,-955,64
1657292419381,-211,-1005,14
1657292419421,-208,-1072,18
1657292419461,-175,-1139,102
1657292419501,-229,-1275,120
1657292419541,-285,-1397,178
1657292419581,-496,-1368,168
1657292419621,-632,-1174,93
1657292419661,-340,-1019,55
1657292419701,-138,-963,49
1657292419741,-44,-913,106
1657292419781,-100,-893,271
1657292419821,-140,-918,356
1657292419861,-154,-936,341
1657292419901,-139,-929,326
1657292419941,-133,-939,241
1657292419981,-120,-928,190
1657292420021,-79,-950,148
1657292420061,-52,-1006,89
1657292420101,6,-1028,84
1657292420141,-4,-1140,86
1657292420181,10,-1304,60
1657292420221,-309,-1195,136
1657292420261,-513,-1158,-23
1657292420301,-181,-1096,-14
1657292420341,-71,-962,77
1657292420381,-115,-856,137
1657292420421,-116,-805,106
1657292420461,-120,-783,47
1657292420501,-83,-817,44
1657292420541,-131,-867,66
1657292420581,-188,-926,74
1657292420621,-213,-996,103
1657292420661,-266,-1062,93
1657292420701,-280,-1103,91
1657292420741,-103,-1281,178
1657292420781,-202,-1340,202
1657292420821,-536,-1250,157
1657292420861,-473,-1132,118
1657292420901,-225,-1089,117
1657292420941,-198,-971,113
1657292420981,-148,-864,189
1657292421021,-23,-821,255
1657292421061,22,-827,240
1657292421101,-24,-858,247
1657292421141,-72,-907,268
1657292421181,-116,-986,248
1657292421221,-110,-1062,226
1657292421261,-74,-1115,181
1657292421301,-99,-1159,73
1657292421341,-4,-1330,4
1657292421381,-129,-1170,182
1657292421421,-434,-1081,191
1657292421461,-230,-1088,-33
1657292421501,-64,-1009,-3
1657292421541,-93,-826,114
1657292421581,-128,-767,108
1657292421621,-92,-762,71
1657292421661,-78,-803,77
1657292421701,-111,-897,70
1657292421741,-100,-885,153
1657292421781,-113,-890,220
1657292421821,-155,-999,124
1657292421861,-243,-1117,-9
1657292421901,-232,-1215,-13
1657292421941,-171,-1434,85
1657292421981,-352,-1462,154
1657292422021,-670,-1277,165
1657292422061,-351,-1082,165
1657292422101,-129,-1006,125
1657292422141,-77,-907,156
1657292422181,-121,-832,271
1657292422221,-60,-780,317
1657292422261,-31,-783,281
1657292422301,-46,-812,270
1657292422341,-77,-881,276
1657292422381,-143,-996,210
1657292422421,-184,-1126,140
1657292422461,-166,-1182,86
1657292422501,-81,-1189,76
1657292422541,-15,-1265,62
1657292422581,-24,-1307,87
1657292422621,-247,-1081,151
1657292422661,-355,-931,78
1657292422701,-140,-940,-53
1657292422741,-42,-926,12
1657292422781,-104,-840,171
1657292422821,-153,-820,218
1657292422861,-187,-879,140
1657292422901,-181,-910,82
1657292422941,-165,-912,112
1657292422981,-150,-911,100
1657292423021,-159,-938,91
1657292423061,-161,-980,63
1657292423101,-135,-1056,58
1657292423141,-125,-1207,79
1657292423181,-107,-1367,159
1657292423221,-356,-1311,209
1657292423261,-569,-1167,130
1657292423301,-314,-1079,96
1657292423341,-95,-1011,94
1657292423381,-83,-938,101
1657292423421,-113,-829,236
1657292423461,-71,-776,312
1657292423501,-59,-837,254
1657292423541,-96,-904,242
1657292423581,-160,-951,206
1657292423621,-165,-993,165
1657292423661,-102,-1042,159
1657292423701,-39,-1102,166
1657292423741,-63,-1240,110
1657292423781,-45,-1389,104
1657292423821,-242,-1177,228
1657292423861,-438,-1043,119
1657292423901,-205,-1053,-60
1657292423941,-36,-997,-72
1657292423981,-92,-882,26
1657292424021,-88,-807,37
1657292424061,-90,-786,33
1657292424101,-61,-784,-3
1657292424141,-39,-819,16
1657292424181,-94,-853,59
1657292424221,-145,-880,114
1657292424261,-172,-1001,84
1657292424301,-225,-1161,49
1657292424341,-154,-1360,137
1657292424381,-279,-1415,306
1657292424421,-633,-1311,214
1657292424461,-503,-1110,170
1657292424501,-217,-1010,138
1657292424541,-153,-927,94
1657292424581,-186,-819,194
1657292424621,-145,-766,276
1657292424661,-147,-819,212
1657292424701,-204,-882,208
1657292424741,-241,-946,185
1657292424781,-286,-1005,131
1657292424821,-325,-1133,91
1657292424861,-194,-1166,157
1657292424901,-149,-1215,224
1657292424941,-49,-1316,216
1657292424981,18,-1358,155
1657292425021,-149,-1132,184
1657292425061,-230,-992,99
1657292425101,-35,-1030,-122
1657292425141,-5,-952,-76
1657292425181,-125,-812,2
1657292425221,-134,-796,-71
1657292425261,-79,-747,-56
1657292425301,-70,-749,16
1657292425341,-58,-803,67
1657292425381,-144,-850,111
1657292425421,-189,-906,125
1657292425461,-170,-1001,101
1657292425501,-168,-1102,109
1657292425541,-151,-1303,172
1657292425581,-214,-1501,219
1657292425621,-615,-1549,133
1657292425661,-730,-1301,67
1657292425701,-490,-1093,15
1657292425741,-315,-996,35
1657292425781,-187,-968,56
1657292425821,-172,-894,74
1657292425861,-176,-898,166
1657292425901,-225,-993,238
1657292425941,-272,-1104,261
1657292425981,-305,-1139,319
1657292426021,-164,-1036,337
1657292426061,-49,-910,328
1657292426101,54,-874,245
1657292426141,87,-922,144
1657292426181,70,-1042,88
1657292426221,90,-1177,-23
1657292426261,-84,-1170,36
1657292426301,-305,-1048,104
1657292426341,-239,-1048,13
1657292426381,-55,-1012,66
1657292426421,-163,-929,148
1657292426461,-220,-880,177
1657292426501,-253,-866,169
1657292426541,-268,-898,125
1657292426581,-269,-942,139
1657292426621,-273,-989,129
1657292426661,-301,-1037,92
1657292426701,-218,-1072,15
1657292426741,-170,-1132,45
1657292426781,-190,-1193,40
1657292426821,-158,-1278,88
1657292426861,-252,-1254,169
1657292426901,-348,-1158,137
1657292426941,-374,-1099,27
1657292426981,-213,-1047,-12
1657292427021,-192,-1039,58
1657292427061,-95,-982,223
1657292427101,-121,-920,301
1657292427141,-109,-880,316
1657292427181,-82,-870,300
1657292427221,-76,-873,261
1657292427261,-80,-899,209
1657292427301,-66,-923,181
1657292427341,-28,-971,144
1657292427381,-6,-1074,99
1657292427421,36,-1222,48
1657292427461,88,-1373,77
1657292427501,-173,-1220,189
1657292427541,-465,-1084,63
1657292427581,-262,-1044,-78
1657292427621,-118,-980,-20
1657292427661,-174,-897,41
1657292427701,-166,-830,83
1657292427741,-152,-812,93
1657292427781,-171,-823,62
1657292427821,-163,-901,84
1657292427861,-167,-931,89
1657292427901,-203,-945,74
1657292427941,-227,-979,67
1657292427981,-156,-1029,83
1657292428021,-104,-1087,118
1657292428061,-101,-1265,183
1657292428101,-159,-1283,287
1657292428141,-558,-1218,262
1657292428181,-681,-1143,70
1657292428221,-359,-1076,45
1657292428261,-207,-1035,87
1657292428301,-169,-954,165
1657292428341,-141,-875,295
1657292428381,-98,-848,346
1657292428421,-99,-858,330
1657292428461,-152,-901,300
1657292428501,-130,-951,242
1657292428541,-142,-990,190
1657292428581,-80,-1044,116
1657292428621,-4,-1059,102
1657292428661,44,-1193,71
1657292428701,93,-1372,123
1657292428741,-235,-1162,244
1657292428781,-503,-1080,148
1657292428821,-192,-1071,46
1657292428861,-50,-927,72
1657292428901,-154,-832,139
1657292428941,-187,-788,149
1657292428981,-188,-799,114
1657292429021,-192,-855,110
1657292429061,-202,-868,130
1657292429101,-214,-910,116
1657292429141,-207,-953,106
1657292429181,-214,-992,58
1657292429221,-209,-1078,95
1657292429261,-130,-1208,131
1657292429301,-139,-1323,196
1657292429341,-272,-1290,294
1657292429381,-550,-1169,242
1657292429421,-558,-1086,12
1657292429461,-258,-1102,-99
1657292429501,-235,-1117,-21
1657292429541,-199,-984,259
1657292429581,-124,-873,448
1657292429621,-86,-857,409
1657292429661,-86,-867,301
1657292429701,-92,-852,291
1657292429741,-94,-859,249
1657292429781,-105,-898,220
1657292429821,-91,-956,203
1657292429861,-40,-1056,169
1657292429901,-4,-1132,152
1657292429941,15,-1290,84
1657292429981,-85,-1364,62
1657292430021,-340,-1159,58
1657292430061,-410,-993,91
1657292430101,-226,-1015,-54
1657292430141,-129,-1004,1
1657292430181,-175,-922,172
1657292430221,-225,-857,243
1657292430261,-236,-857,170
1657292430301,-167,-858,153
1657292430341,-129,-868,146
1657292430381,-154,-905,132
1657292430421,-170,-901,136
1657292430461,-167,-897,84
1657292430501,-96,-972,74
1657292430541,-92,-1151,69
1657292430581,-79,-1265,85
1657292430621,-39,-1313,227
1657292430661,-178,-1275,339
1657292430701,-424,-1092,313
1657292430741,-513,-1004,105
1657292430781,-311,-981,0
1657292430821,-121,-1052,54
1657292430861,-243,-1031,92
1657292430901,-183,-973,229
1657292430941,-81,-928,300
1657292430981,-74,-905,289
1657292431021,-113,-901,340
1657292431061,-76,-930,294
1657292431101,-93,-972,222
1657292431141,-56,-985,173
1657292431181,29,-1061,97
1657292431221,26,-1068,77
1657292431261,50,-1190,53
1657292431301,-86,-1251,3
1657292431341,-313,-1115,87
1657292431381,-322,-994,156
1657292431421,-164,-1060,71
1657292431461,-194,-1068,27
1657292431501,-208,-937,154
1657292431541,-195,-844,233
1657292431581,-155,-834,203
1657292431621,-175,-855,137
1657292431661,-113,-826,155
1657292431701,-159,-901,118
1657292431741,-193,-922,48
1657292431781,-131,-986,42
1657292431821,-106,-1076,72
1657292431861,-157,-1194,122
1657292431901,-182,-1334,203
1657292431941,-241,-1282,303
1657292431981,-404,-1126,267
1657292432021,-431,-1068,60
1657292432061,-281,-1078,59
1657292432101,-109,-1043,174
1657292432141,-104,-988,274
1657292432181,-148,-919,318
1657292432221,-118,-830,313
1657292432261,-80,-808,279
1657292432301,-40,-834,232
1657292432341,-55,-879,220
1657292432381,-103,-964,188
1657292432421,-127,-1046,175
1657292432461,-132,-1151,162
1657292432501,-156,-1248,178
1657292432541,-169,-1288,126
1657292432581,-105,-1337,22
1657292432621,-133,-1263,-91
1657292432661,-232,-1033,-109
1657292432701,-222,-981,-64
1657292432741,-4,-880,-41
1657292432781,84,-775,104
1657292432821,30,-711,186
1657292432861,-44,-747,174
1657292432901,-9,-812,96
1657292432941,2,-875,80
1657292432981,0,-919,-17
1657292433021,17,-916,-166
1657292433061,-160,-1063,62
1657292433101,39,-1084,-39
1657292433141,-47,-1173,94
1657292433181,4,-1332,-24
1657292433221,-86,-1415,30
1657292433261,-332,-1462,-42
1657292433301,-552,-1494,-258
1657292433341,-229,-1375,-288
1657292433381,153,-1246,107
1657292433421,201,-1003,277
1657292433461,149,-835,277
1657292433501,99,-762,238
1657292433541,111,-771,140
1657292433581,70,-861,22
1657292433621,60,-870,86
1657292433661,18,-855,47
1657292433701,-82,-949,-44
1657292433741,48,-1105,-56
1657292433781,248,-1348,-47
1657292433821,247,-1434,103
1657292433861,-181,-1318,-39
1657292433901,-232,-1172,-447
1657292433941,103,-1082,-254
1657292433981,167,-952,215
1657292434021,-36,-844,311
1657292434061,-130,-858,132
1657292434101,-120,-857,66
1657292434141,-65,-860,44
1657292434181,-12,-892,51
1657292434221,-61,-964,8
1657292434261,-97,-1060,2
1657292434301,-100,-1120,44
1657292434341,-123,-1166,72
1657292434381,-140,-1233,40
1657292434421,-128,-1275,24
1657292434461,-170,-1233,103
1657292434501,-253,-1195,96
1657292434541,-242,-1126,80
1657292434581,-112,-1065,141
1657292434621,9,-1050,178
1657292434661,53,-986,229
1657292434701,-19,-907,300
1657292434741,5,-836,317
1657292434781,25,-886,230
1657292434821,22,-896,174
1657292434861,42,-913,169
1657292434901,32,-950,99
1657292434941,5,-1050,96
1657292434981,4,-1134,61
1657292435021,12,-1252,32
1657292435061,151,-1375,72
1657292435101,-140,-1076,303
1657292435141,-342,-1044,77
1657292435181,-68,-1039,-194
1657292435221,8,-902,-62
1657292435261,-76,-804,100
1657292435301,-100,-821,66
1657292435341,-122,-850,43
1657292435381,-133,-888,6
1657292435421,-114,-907,17
1657292435461,-168,-881,53
1657292435501,-181,-956,20
1657292435541,-118,-1165,0
1657292435581,7,-1491,95
1657292435621,-110,-1528,343
1657292435661,-470,-1314,381
1657292435701,-399,-1127,195
1657292435741,-69,-1027,77
1657292435781,11,-893,80
1657292435821,-74,-783,147
1657292435861,-11,-768,177
1657292435901,3,-790,199
1657292435941,-45,-857,244
1657292435981,-86,-960,211
1657292436021,-165,-1044,139
1657292436061,-162,-1077,122
1657292436101,-83,-1132,103
1657292436141,-50,-1142,74
1657292436181,20,-1232,47
1657292436221,16,-1309,68
1657292436261,-223,-1102,171
1657292436301,-324,-1039,75
1657292436341,-113,-1055,-72
1657292436381,-26,-979,-9
1657292436421,-62,-848,90
1657292436461,-94,-819,46
1657292436501,-48,-778,75
1657292436541,-22,-781,91
1657292436581,-57,-851,92
1657292436621,-161,-887,88
1657292436661,-201,-913,98
1657292436701,-148,-1049,65
1657292436741,-144,-1274,57
1657292436781,-17,-1470,265
1657292436821,-299,-1411,418
1657292436861,-462,-1164,312
1657292436901,-193,-1003,48
1657292436941,-184,-1002,-109
1657292436981,-298,-973,-18
1657292437021,-245,-909,126
1657292437061,-129,-890,207
1657292437101,-35,-911,196
1657292437141,-76,-923,166
1657292437181,-89,-928,233
1657292437221,-4,-990,233
1657292437261,-7,-1052,212
1657292437301,-4,-1100,157
1657292437341,14,-1196,136
1657292437381,94,-1349,73
1657292437421,-88,-1204,177
1657292437461,-360,-1021,47
1657292437501,-180,-1013,-131
1657292437541,-31,-963,-20
1657292437581,-7,-835,92
1657292437621,-125,-809,58
1657292437661,-179,-830,-24
1657292437701,-128,-852,-10
1657292437741,-88,-893,28
1657292437781,-102,-925,88
1657292437821,-111,-926,145
1657292437861,-73,-948,132
1657292437901,-82,-1045,90
1657292437941,-75,-1264,73
1657292437981,-102,-1471,173
1657292438021,-441,-1450,171
1657292438061,-663,-1245,85
1657292438101,-314,-1086,83
1657292438141,-103,-985,62
1657292438181,-87,-884,79
1657292438221,-128,-833,133
1657292438261,-74,-812,189
1657292438301,-34,-863,208
1657292438341,-70,-951,219
1657292438381,-68,-1050,229
1657292438421,-39,-1115,237
1657292438461,-29,-1242,176
1657292438501,120,-1550,57
1657292438541,77,-1218,284
1657292438581,-94,-1040,208
1657292438621,99,-1012,-189
1657292438661,150,-797,-266
1657292438701,-35,-679,-93
1657292438741,-80,-687,-22
1657292438781,-66,-717,12
1657292438821,-93,-812,-21
1657292438861,-37,-900,74
1657292438901,-45,-894,175
1657292438941,-125,-964,122
1657292438981,-132,-1148,14
1657292439021,-170,-1404,-9
1657292439061,-331,-1671,38
1657292439101,-556,-1667,255
1657292439141,-726,-1330,245
1657292439181,-305,-1154,108
1657292439221,-35,-984,124
1657292439261,-58,-875,189
1657292439301,-85,-823,214
1657292439341,-44,-858,208
1657292439381,-41,-905,224
1657292439421,-120,-962,279
1657292439461,-76,-1020,292
1657292439501,-35,-1071,293
1657292439541,-14,-1123,244
1657292439581,8,-1162,267
1657292439621,109,-1218,220
1657292439661,166,-1082,216
1657292439701,-189,-897,310
1657292439741,-298,-1003,-69
1657292439781,-85,-1060,-98
1657292439821,-74,-939,147
1657292439861,-190,-834,197
1657292439901,-194,-771,199
1657292439941,-208,-792,154
1657292439981,-185,-837,100
1657292440021,-166,-873,138
1657292440061,-239,-862,178
1657292440101,-266,-986,135
1657292440141,-260,-1228,91
1657292440181,-191,-1503,260
1657292440221,-406,-1496,330
1657292440261,-1094,-1498,313
1657292440301,-732,-1160,46
1657292440341,-343,-1038,202
1657292440381,-278,-1000,291
1657292440421,-232,-958,358
1657292440461,-148,-876,298
1657292440501,-23,-835,333
1657292440541,18,-761,266
1657292440581,-52,-757,169
1657292440621,-91,-781,249
1657292440661,-77,-866,180
1657292440701,-24,-993,216
1657292440741,43,-1177,236
1657292440781,46,-1237,277
1657292440821,-242,-1178,258
1657292440861,-451,-1243,8
1657292440901,-227,-1141,68
1657292440941,-167,-984,138
1657292440981,-272,-871,102
1657292441021,-268,-789,79
1657292441061,-365,-887,86
1657292441101,-406,-1018,152
1657292441141,-447,-993,208
1657292441181,-336,-942,304
1657292441221,-317,-920,337
1657292441261,-246,-971,267
1657292441301,-200,-1074,224
1657292441341,-110,-1155,233
1657292441381,-90,-1253,417
1657292441421,-308,-1148,510
1657292441461,-494,-1005,367
1657292441501,-261,-951,285
1657292441541,-111,-953,239
1657292441581,-174,-903,260
1657292441621,-214,-861,336
1657292441661,-144,-818,331
1657292441701,-124,-801,287
1657292441741,-118,-824,287
1657292441781,-141,-860,234
1657292441821,-152,-890,234
1657292441861,-190,-975,205
1657292441901,-180,-1128,185
1657292441941,-122,-1215,168
1657292441981,-155,-1371,84
1657292442021,-178,-1231,148
1657292442061,-296,-1003,255
1657292442101,-278,-990,79
1657292442141,-93,-957,138
1657292442181,-70,-864,211
1657292442221,-191,-812,180
1657292442261,-190,-763,163
1657292442301,-155,-766,121
1657292442341,-134,-793,140
1657292442381,-161,-888,172
1657292442421,-151,-925,202
1657292442461,-228,-938,198
1657292442501,-163,-1044,167
1657292442541,-173,-1209,134
1657292442581,-200,-1414,131
1657292442621,-359,-1519,187
1657292442661,-650,-1421,236
1657292442701,-539,-1126,186
1657292442741,-166,-965,186
1657292442781,-14,-867,201
1657292442821,-22,-715,259
1657292442861,-91,-741,274
1657292442901,-117,-810,279
1657292442941,-169,-873,287
1657292442981,-191,-945,341
1657292443021,-95,-1001,388
1657292443061,-32,-1070,354
1657292443101,28,-1103,321
1657292443141,23,-1259,233
1657292443181,33,-1339,113
1657292443221,-206,-1236,192
1657292443261,-273,-1073,7
1657292443301,146,-965,-12
1657292443341,158,-837,40
1657292443381,-120,-774,151
1657292443421,-48,-708,74
1657292443461,22,-696,10
1657292443501,100,-797,77
1657292443541,-188,-1001,225
1657292443581,-345,-1079,269
1657292443621,-329,-1105,215
1657292443661,-242,-1178,138
1657292443701,-262,-1290,47
1657292443741,-123,-1457,176
1657292443781,-266,-1468,284
1657292443821,-564,-1276,281
1657292443861,-262,-1072,289
1657292443901,-21,-921,267
1657292443941,81,-804,150
1657292443981,-50,-773,193
1657292444021,-16,-750,260
1657292444061,5,-783,288
1657292444101,-17,-848,288
1657292444141,-92,-975,318
1657292444181,-158,-1082,268
1657292444221,-127,-1160,245
1657292444261,-26,-1135,232
1657292444301,33,-1218,180
1657292444341,382,-1222,-32
1657292444381,149,-1165,31
1657292444421,-111,-1030,198
1657292444461,102,-989,99
1657292444501,59,-931,98
1657292444541,-78,-849,54
1657292444581,-31,-840,35
1657292444621,-71,-877,63
1657292444661,-45,-942,154
1657292444701,-51,-953,114
1657292444741,-153,-968,22
1657292444781,-88,-992,-36
1657292444821,-44,-1108,-106
1657292444861,-75,-1210,-76
1657292444901,17,-1391,10
1657292444941,-31,-1558,133
1657292444981,-482,-1316,163
1657292445021,-458,-1101,148
1657292445061,-107,-1025,164
1657292445101,-52,-957,181
1657292445141,14,-835,295
1657292445181,-10,-795,386
1657292445221,-27,-818,425
1657292445261,-48,-873,357
1657292445301,-101,-963,323
1657292445341,-150,-996,280
1657292445381,-79,-1030,269
1657292445421,14,-1119,151
1657292445461,48,-1170,50
1657292445501,81,-1316,9
1657292445541,117,-1175,180
1657292445581,-218,-970,226
1657292445621,-336,-1006,20
1657292445661,-55,-1004,11
1657292445701,20,-926,182
1657292445741,-147,-830,256
1657292445781,-161,-855,236
1657292445821,-210,-905,-106
1657292445861,-206,-925,-146
1657292445901,-168,-901,28
1657292445941,-170,-902,78
1657292445981,-198,-940,123
1657292446021,-166,-1011,142
1657292446061,-45,-1205,184
1657292446101,73,-1487,252
1657292446141,-139,-1484,427
1657292446181,-502,-1266,412
1657292446221,-396,-1094,250
1657292446261,-149,-973,205
1657292446301,-139,-860,241
1657292446341,-29,-744,170
1657292446381,5,-716,189
1657292446421,-90,-767,265
1657292446461,-176,-843,277
1657292446501,-256,-935,285
1657292446541,-305,-1027,258
1657292446581,-247,-1041,174
1657292446621,-121,-1148,180
1657292446661,-61,-1142,234
1657292446701,-32,-1220,218
1657292446741,-72,-1359,197
1657292446781,-222,-1138,267
1657292446821,-325,-926,291
1657292446861,-123,-922,143
1657292446901,21,-903,54
1657292446941,-15,-808,191
1657292446981,-90,-738,292
1657292447021,-99,-731,250
1657292447061,-123,-773,181
1657292447101,-148,-876,125
1657292447141,-208,-972,102
1657292447181,-273,-1054,121
1657292447221,-312,-1054,123
1657292447261,-313,-1034,140
1657292447301,-258,-1044,118
1657292447341,-232,-1185,126
1657292447381,-260,-1370,153
1657292447421,-307,-1496,273
1657292447461,-453,-1245,277
1657292447501,-305,-1100,285
1657292447541,-81,-1005,200
1657292447581,22,-938,178
1657292447621,1,-862,284
1657292447661,-96,-875,330
1657292447701,-73,-856,328
1657292447741,-51,-836,321
1657292447781,-33,-855,304
1657292447821,-52,-891,218
1657292447861,-29,-979,221
1657292447901,-5,-1026,202
1657292447941,15,-1071,177
1657292447981,26,-1286,66
1657292448021,149,-1388,132
1657292448061,-119,-1173,399
1657292448101,-394,-1221,346
1657292448141,-260,-1202,108
1657292448181,-245,-1008,169
1657292448221,-266,-812,190
1657292448261,-207,-753,119
1657292448301,-162,-749,91
1657292448341,-86,-754,112
1657292448381,-71,-864,150
1657292448421,-134,-990,169
1657292448461,-165,-1022,164
1657292448501,-163,-970,216
1657292448541,-128,-998,147
1657292448581,-124,-1093,92
1657292448621,-71,-1248,84
1657292448661,-222,-1415,138
1657292448701,-545,-1276,159
1657292448741,-501,-1142,177
1657292448781,-190,-1021,231
1657292448821,-231,-1021,165
1657292448861,-201,-929,308
1657292448901,-139,-873,364
1657292448941,-95,-875,364
1657292448981,-116,-933,353
1657292449021,-153,-993,350
1657292449061,-96,-1030,409
1657292449101,-34,-1074,427
1657292449141,51,-1092,319
1657292449181,95,-1097,234
1657292449221,125,-1167,83
1657292449261,117,-1152,3
1657292449301,-141,-979,-69
1657292449341,-255,-977,-139
1657292449381,-65,-970,52
1657292449421,-92,-967,43
1657292449461,-201,-918,143
1657292449501,-259,-903,207
1657292449541,-261,-915,128
1657292449581,-238,-952,145
1657292449621,-238,-978,121
1657292449661,-198,-1045,124
1657292449701,-204,-1066,88
1657292449741,-194,-1055,97
1657292449781,-158,-1052,112
1657292449821,-120,-1107,83
1657292449861,-92,-1220,94
1657292449901,-208,-1244,86
1657292449941,-382,-1199,100
1657292449981,-423,-1124,-3
1657292450021,-222,-1080,89
1657292450061,-143,-1100,111
1657292450101,-187,-1053,212
1657292450141,-116,-979,393
1657292450181,-8,-903,452
1657292450221,-5,-846,451
1657292450261,-42,-834,407
1657292450301,-53,-889,299
1657292450341,-50,-919,169
1657292450381,-35,-1004,153
1657292450421,5,-1031,119
1657292450461,21,-1109,107
1657292450501,-1,-1196,3
1657292450541,-120,-1239,21
1657292450581,-377,-1198,53
1657292450621,-413,-1134,36
1657292450661,-203,-1087,50
1657292450701,-165,-985,167
1657292450741,-238,-863,287
1657292450781,-229,-813,278
1657292450821,-211,-819,204
1657292450861,-171,-856,189
1657292450901,-209,-950,207
1657292450941,-207,-1000,180
1657292450981,-178,-1039,185
1657292451021,-167,-1025,101
1657292451061,-91,-1034,89
1657292451101,-54,-1140,170
1657292451141,-122,-1122,119
1657292451181,-256,-1187,189
1657292451221,-348,-1159,173
1657292451261,-367,-1130,124
1657292451301,-264,-1126,151
1657292451341,-209,-1100,221
1657292451381,-244,-1031,286
1657292451421,-186,-922,348
1657292451461,-79,-857,362
1657292451501,-34,-857,329
1657292451541,-59,-864,286
1657292451581,-96,-882,227
1657292451621,-150,-866,254
1657292451661,-106,-1002,144
1657292451701,-99,-1193,-30
1657292451741,-130,-1239,-52
1657292451781,-84,-1315,77
1657292451821,-119,-1277,187
1657292451861,-188,-991,251
1657292451901,-211,-815,380
1657292451941,-91,-828,221
1657292451981,-32,-837,73
1657292452021,-122,-806,221
1657292452061,-212,-812,210
1657292452101,-226,-877,188
1657292452141,-296,-940,150
1657292452181,-349,-995,85
1657292452221,-380,-1093,-7
1657292452261,-350,-1119,49
1657292452301,-308,-1088,158
1657292452341,-285,-1069,172
1657292452381,-194,-1106,188
1657292452421,-126,-1167,196
1657292452461,-87,-1196,248
1657292452501,-194,-1169,291
1657292452541,-289,-1080,192
1657292452581,-266,-1063,39
1657292452621,-184,-1118,76
1657292452661,-106,-1078,111
1657292452701,-175,-983,299
1657292452741,-81,-781,412
1657292452781,-24,-663,426
1657292452821,8,-667,345
1657292452861,-77,-769,303
1657292452901,-142,-878,279
1657292452941,-275,-1014,249
1657292452981,-439,-1151,183
1657292453021,-295,-1197,157
1657292453061,-145,-1170,254
1657292453101,-75,-1329,206
1657292453141,-56,-1350,131
1657292453181,-197,-1013,270
1657292453221,-367,-970,172
1657292453261,-142,-995,-63
1657292453301,-34,-877,-6
1657292453341,-193,-819,111
1657292453381,-189,-791,174
1657292453421,-123,-753,205
1657292453461,-94,-795,202
1657292453501,-121,-874,184
1657292453541,-201,-927,140
1657292453581,-251,-965,124
1657292453621,-275,-1052,77
1657292453661,-189,-1096,163
1657292453701,-207,-1240,171
1657292453741,-197,-1324,236
1657292453781,-368,-1352,289
1657292453821,-586,-1229,230
1657292453861,-372,-1068,239
1657292453901,-180,-989,243
1657292453941,-20,-864,283
1657292453981,-112,-778,364
1657292454021,-18,-817,354
1657292454061,-74,-865,279
1657292454101,-140,-910,270
1657292454141,-141,-920,280
1657292454181,-147,-923,259
1657292454221,-94,-963,238
1657292454261,-13,-1005,234
1657292454301,45,-1052,222
1657292454341,15,-1193,174
1657292454381,-21,-1245,192
1657292454421,-204,-1171,244
1657292454461,-401,-1012,223
1657292454501,-313,-1014,115
1657292454541,-101,-996,91
1657292454581,-90,-903,183
1657292454621,-222,-880,214
1657292454661,-220,-870,130
1657292454701,-151,-860,163
1657292454741,-106,-869,182
1657292454781,-130,-914,151
1657292454821,-169,-923,171
1657292454861,-150,-915,184
1657292454901,-96,-1018,140
1657292454941,-74,-1186,174
1657292454981,-117,-1386,210
1657292455021,-244,-1353,85
1657292455061,-413,-1134,239
1657292455101,-404,-1038,456
1657292455141,-242,-1068,209
1657292455181,-325,-1011,-176
1657292455221,-98,-866,-149
1657292455261,153,-572,194
1657292455301,-150,-682,427
1657292455341,-385,-1007,311
1657292455381,-371,-1122,207
1657292455421,-120,-1081,124
1657292455461,-168,-1208,10
1657292455501,-317,-1335,-72
1657292455541,-150,-1334,32
1657292455581,-190,-1222,-59
1657292455621,-465,-971,52
1657292455661,-250,-830,-101
1657292455701,-102,-789,-64
1657292455741,-170,-833,91
1657292455781,-234,-816,209
1657292455821,-288,-783,309
1657292455861,-251,-770,171
1657292455901,-207,-775,126
1657292455941,-247,-846,141
1657292455981,-327,-949,122
1657292456021,-293,-1065,102
1657292456061,-234,-1210,116
1657292456101,-288,-1266,143
1657292456141,-124,-1239,284
1657292456181,-23,-1220,334
1657292456221,-265,-1187,187
1657292456261,-359,-1112,56
1657292456301,-259,-1044,12
1657292456341,-198,-1028,17
1657292456381,-182,-956,161
1657292456421,-154,-866,283
1657292456461,-105,-851,326
1657292456501,-106,-892,272
1657292456541,-61,-981,256
1657292456581,-15,-993,254
1657292456621,35,-1097,278
1657292456661,1,-1161,275
1657292456701,50,-1236,260
1657292456741,156,-1313,146
1657292456781,-96,-1100,282
1657292456821,-239,-1131,155
1657292456861,-87,-1138,-85
1657292456901,29,-828,48
1657292456941,-97,-733,-5
1657292456981,-98,-746,-91
1657292457021,10,-698,20
1657292457061,20,-701,137
1657292457101,-24,-832,135
1657292457141,-152,-1015,55
1657292457181,-290,-1140,-7
1657292457221,-301,-1203,63
1657292457261,-301,-1378,86
1657292457301,-381,-1503,80
1657292457341,-203,-1526,240
1657292457381,-293,-1182,331
1657292457421,-316,-968,183
1657292457461,-115,-834,20
1657292457501,48,-723,103
1657292457541,-25,-793,139
1657292457581,-107,-820,294
1657292457621,-97,-888,372
1657292457661,-133,-906,394
1657292457701,-130,-941,385
1657292457741,-130,-1001,333
1657292457781,-93,-1027,296
1657292457821,-65,-1078,270
1657292457861,-32,-1210,180
1657292457901,-36,-1279,73
1657292457941,-70,-1325,-42
1657292457981,-34,-1100,132
1657292458021,-174,-898,271
1657292458061,-255,-969,-32
1657292458101,-185,-985,-123
1657292458141,-94,-935,174
1657292458181,-123,-815,360
1657292458221,-193,-796,337
1657292458261,-191,-841,176
1657292458301,-205,-860,85
1657292458341,-165,-943,59
1657292458381,-162,-989,163
1657292458421,-227,-1063,165
1657292458461,-208,-1082,168
1657292458501,-190,-1126,140
1657292458541,-197,-1207,79
1657292458581,-195,-1220,90
1657292458621,-267,-1272,161
1657292458661,-417,-1351,67
1657292458701,-354,-1215,105
1657292458741,-136,-1048,279
1657292458781,-61,-870,325
1657292458821,-41,-727,362
1657292458861,-9,-665,363
1657292458901,-12,-701,311
1657292458941,-112,-789,316
1657292458981,-139,-1040,257
1657292459021,-235,-1209,90
1657292459061,-346,-1242,93
1657292459101,-92,-1201,254
1657292459141,74,-1391,225
1657292459181,112,-1119,214
1657292459221,-7,-834,206
1657292459261,-89,-947,-111
1657292459301,27,-998,-255
1657292459341,-71,-908,-31
1657292459381,-118,-789,179
1657292459421,-135,-819,153
1657292459461,-155,-862,80
1657292459501,-178,-889,131
1657292459541,-219,-943,133
1657292459581,-293,-1014,82
1657292459621,-340,-1086,75
1657292459661,-321,-1109,57
1657292459701,-265,-1127,68
1657292459741,-263,-1177,99
1657292459781,-243,-1268,110
1657292459821,-310,-1262,146
1657292459861,-416,-1186,141
1657292459901,-476,-1139,92
1657292459941,-313,-1055,78
1657292459981,-166,-992,133
1657292460021,-117,-899,195
1657292460061,-149,-824,300
1657292460101,-160,-830,348
1657292460141,-163,-900,317
1657292460181,-179,-937,280
1657292460221,-135,-940,310
1657292460261,-136,-1010,297
1657292460301,-87,-1072,274
1657292460341,-61,-1097,299
1657292460381,94,-1288,197
1657292460421,270,-1235,128
1657292460461,-57,-1074,239
1657292460501,-225,-1101,38
1657292460541,40,-1077,-94
1657292460581,-15,-941,59
1657292460621,-149,-841,156
1657292460661,-208,-843,45
1657292460701,-194,-868,-12
1657292460741,-144,-876,72
1657292460781,-136,-912,218
1657292460821,-224,-965,266
1657292460861,-280,-1028,212
1657292460901,-244,-1102,134
1657292460941,-263,-1126,95
1657292460981,-222,-1175,80
1657292461021,-148,-1256,114
1657292461061,-210,-1318,185
1657292461101,-457,-1294,99
1657292461141,-461,-1164,32
1657292461181,-172,-1029,123
1657292461221,-87,-927,213
1657292461261,-105,-844,245
1657292461301,-121,-827,315
1657292461341,-130,-868,349
1657292461381,-138,-922,369
1657292461421,-136,-986,378
1657292461461,-127,-1019,359
1657292461501,-67,-1031,385
1657292461541,14,-1052,292
1657292461581,103,-1069,153
1657292461621,107,-1194,28
1657292461661,211,-1190,-100
1657292461701,-12,-1065,-3
1657292461741,-210,-1043,36
1657292461781,45,-1052,-67
1657292461821,-38,-999,65
1657292461861,-74,-919,103
1657292461901,-127,-904,60
1657292461941,-116,-915,26
1657292461981,-116,-985,44
1657292462021,-108,-1019,-31
1657292462061,-123,-993,13
1657292462101,-47,-957,90
1657292462141,-41,-959,70
1657292462181,-58,-1041,107
1657292462221,-9,-1240,82
1657292462261,-31,-1421,183
1657292462301,-467,-1421,188
1657292462341,-629,-1218,149
1657292462381,-253,-1116,180
1657292462421,-71,-1022,155
1657292462461,-56,-909,204
1657292462501,-41,-854,262
1657292462541,24,-863,328
1657292462581,-30,-897,319
1657292462621,-76,-964,369
1657292462661,-116,-985,349
1657292462701,-53,-1003,326
1657292462741,27,-1028,253
1657292462781,105,-1087,235
1657292462821,155,-1112,144
1657292462861,162,-1216,40
1657292462901,-12,-1145,124
1657292462941,-217,-978,202
1657292462981,-206,-972,128
1657292463021,-65,-984,133
1657292463061,-163,-966,174
1657292463101,-258,-904,201
1657292463141,-252,-890,235
1657292463181,-227,-908,173
1657292463221,-180,-916,142
1657292463261,-195,-939,143
1657292463301,-173,-948,109
1657292463341,-127,-967,124
1657292463381,-80,-982,118
1657292463421,-8,-1126,157
1657292463461,-60,-1385,99
1657292463501,-240,-1451,249
1657292463541,-451,-1237,323
1657292463581,-487,-1044,164
1657292463621,-179,-937,118
1657292463661,-58,-955,23
1657292463701,-79,-864,166
1657292463741,-87,-814,271
1657292463781,-56,-851,363
1657292463821,-97,-904,382
1657292463861,-159,-955,374
1657292463901,-119,-930,406
1657292463941,-53,-988,312
1657292463981,12,-1124,261
1657292464021,15,-1184,181
1657292464061,95,-1329,185
1657292464101,121,-1253,212
1657292464141,-49,-942,323
1657292464181,-144,-923,144
1657292464221,-5,-1003,-104
1657292464261,-58,-1055,32
1657292464301,-98,-934,209
1657292464341,-131,-832,266
1657292464381,-95,-810,174
1657292464421,-62,-825,127
1657292464461,-76,-850,112
1657292464501,-113,-877,135
1657292464541,-103,-949,142
1657292464581,-91,-1038,153
1657292464621,-29,-1147,185
1657292464661,-96,-1329,187
1657292464701,-192,-1415,300
1657292464741,-407,-1343,241
1657292464781,-531,-1152,31
1657292464821,-234,-1027,12
1657292464861,-56,-966,54
1657292464901,-168,-942,196
1657292464941,-128,-870,357
1657292464981,-82,-855,382
1657292465021,-94,-896,325
1657292465061,-116,-942,311
1657292465101,-83,-973,319
1657292465141,-63,-996,316
1657292465181,-10,-1028,288
1657292465221,74,-1140,208
1657292465261,87,-1194,92
1657292465301,139,-1318,58
1657292465341,-16,-1202,172
1657292465381,-287,-927,280
1657292465421,-129,-904,92
1657292465461,3,-921,-45
1657292465501,-70,-897,125
1657292465541,-132,-849,239
1657292465581,-197,-843,220
1657292465621,-212,-937,126
1657292465661,-200,-981,94
1657292465701,-230,-1004,103
1657292465741,-164,-969,120
1657292465781,-127,-942,127
1657292465821,-59,-988,133
1657292465861,-61,-1102,148
1657292465901,-98,-1317,171
1657292465941,-210,-1416,237
1657292465981,-441,-1318,202
1657292466021,-402,-1109,98
1657292466061,-177,-1043,83
1657292466101,-75,-961,122
1657292466141,-166,-882,202
1657292466181,-88,-807,264
1657292466221,-46,-781,307
1657292466261,-58,-855,286
1657292466301,-137,-937,265
1657292466341,-126,-959,281
1657292466381,-47,-982,271
1657292466421,11,-1041,230
1657292466461,51,-1111,199
1657292466501,47,-1313,126
1657292466541,51,-1345,194
1657292466581,-231,-1092,306
1657292466621,-376,-1010,77
1657292466661,-126,-1003,-133
1657292466701,-21,-941,-18
1657292466741,-69,-857,151
1657292466781,-73,-814,185
1657292466821,-78,-813,132
1657292466861,-61,-829,111
1657292466901,-67,-871,117
1657292466941,-100,-886,146
1657292466981,-112,-914,166
1657292467021,-123,-981,142
1657292467061,-144,-1121,119
1657292467101,-151,-1335,124
1657292467141,-184,-1495,203
1657292467181,-471,-1409,204
1657292467221,-579,-1187,115
1657292467261,-297,-1051,75
1657292467301,-133,-1042,72
1657292467341,-216,-1005,52
1657292467381,-99,-865,321
1657292467421,-77,-809,388
1657292467461,-57,-843,355
1657292467501,-85,-890,307
1657292467541,-102,-930,318
1657292467581,-83,-967,313
1657292467621,-26,-1042,323
1657292467661,-34,-1160,269
1657292467701,-1,-1285,120
1657292467741,91,-1280,73
1657292467781,-214,-1099,186
1657292467821,-308,-1065,10
1657292467861,-103,-1074,-135
1657292467901,-56,-930,44
1657292467941,-144,-752,93
1657292467981,-172,-753,129
1657292468021,-136,-771,34
1657292468061,-144,-826,74
1657292468101,-150,-854,146
1657292468141,-203,-923,167
1657292468181,-319,-1045,94
1657292468221,-222,-975,154
1657292468261,-243,-1089,235
1657292468301,-349,-1331,202
1657292468341,-431,-1502,152
1657292468381,-651,-1363,119
1657292468421,-654,-1095,141
1657292468461,-262,-931,142
1657292468501,-111,-867,67
1657292468541,-104,-830,53
1657292468581,-149,-834,180
1657292468621,-203,-891,218
1657292468661,-228,-932,265
1657292468701,-248,-999,309
1657292468741,-236,-1015,334
1657292468781,-163,-987,345
1657292468821,-75,-1025,348
1657292468861,0,-1067,322
1657292468901,5,-1154,216
1657292468941,90,-1269,89
1657292468981,-18,-1174,141
1657292469021,-266,-956,181
1657292469061,-226,-950,20
1657292469101,-84,-930,-57
1657292469141,-81,-876,69
1657292469181,-151,-799,159
1657292469221,-173,-802,191
1657292469261,-172,-851,167
1657292469301,-207,-939,165
1657292469341,-256,-1009,168
1657292469381,-255,-1021,158
1657292469421,-251,-1039,105
1657292469461,-219,-1087,67
1657292469501,-174,-1168,118
1657292469541,-224,-1284,154
1657292469581,-268,-1300,209
1657292469621,-418,-1302,200
1657292469661,-483,-1188,83
1657292469701,-166,-1058,91
1657292469741,-135,-1001,157
1657292469781,-80,-913,330
1657292469821,-92,-833,333
1657292469861,-66,-777,374
1657292469901,-24,-777,390
1657292469941,-67,-857,347
1657292469981,-121,-936,321
1657292470021,-122,-995,312
1657292470061,-65,-1082,261
1657292470101,14,-1187,188
1657292470141,54,-1285,153
1657292470181,-24,-1329,71
1657292470221,-193,-1094,156
1657292470261,-301,-980,75
1657292470301,-104,-990,-22
1657292470341,-96,-950,53
1657292470381,-177,-892,116
1657292470421,-165,-841,187
1657292470461,-185,-823,165
1657292470501,-181,-830,142
1657292470541,-170,-874,145
1657292470581,-187,-928,147
1657292470621,-194,-972,86
1657292470661,-201,-1002,93
1657292470701,-108,-1119,136
1657292470741,-163,-1309,53
1657292470781,-246,-1369,141
1657292470821,-358,-1226,261
1657292470861,-439,-1098,92
1657292470901,-210,-1006,70
1657292470941,-127,-1014,54
1657292470981,-133,-983,122
1657292471021,-185,-892,221
1657292471061,-125,-831,357
1657292471101,-125,-864,377
1657292471141,-172,-915,262
1657292471181,-160,-931,286
1657292471221,-137,-958,253
1657292471261,-61,-1027,235
1657292471301,16,-1136,156
1657292471341,-20,-1260,11
1657292471381,66,-1363,67
1657292471421,1,-1187,277
1657292471461,-298,-942,291
1657292471501,-195,-988,-73
1657292471541,-34,-941,-134
1657292471581,-114,-866,30
1657292471621,-170,-813,111
1657292471661,-180,-800,172
1657292471701,-160,-833,142
1657292471741,-143,-885,128
1657292471781,-126,-949,120
1657292471821,-145,-971,134
1657292471861,-134,-986,106
1657292471901,-102,-1071,79
1657292471941,-109,-1228,50
1657292471981,-162,-1399,157
1657292472021,-403,-1368,232
1657292472061,-643,-1216,48
1657292472101,-249,-1007,130
1657292472141,-86,-911,115
1657292472181,-159,-900,193
1657292472221,-88,-846,294
1657292472261,-73,-826,359
1657292472301,-88,-827,360
1657292472341,-103,-896,319
1657292472381,-116,-944,289
1657292472421,-90,-989,284
1657292472461,-84,-1010,251
1657292472501,-20,-1112,222
1657292472541,-20,-1267,122
1657292472581,89,-1417,77
1657292472621,-96,-1153,307
1657292472661,-365,-1038,267
1657292472701,-169,-1071,-23
1657292472741,-81,-970,-66
1657292472781,-153,-834,80
1657292472821,-130,-761,180
1657292472861,-123,-755,144
1657292472901,-109,-790,151
1657292472941,-100,-875,179
1657292472981,-123,-925,196
1657292473021,-116,-947,175
1657292473061,-146,-969,88
1657292473101,-128,-1015,28
1657292473141,-96,-1132,161
1657292473181,-129,-1390,188
1657292473221,-354,-1449,278
1657292473261,-670,-1368,233
1657292473301,-572,-1195,109
1657292473341,-200,-1018,126
1657292473381,-145,-949,94
1657292473421,-150,-866,201
1657292473461,-113,-797,279
1657292473501,-54,-817,341
1657292473541,-89,-863,354
1657292473581,-122,-923,397
1657292473621,-108,-972,401
1657292473661,-47,-992,353
1657292473701,-13,-1041,256
1657292473741,67,-1106,147
1657292473781,77,-1282,23
1657292473821,-7,-1352,82
1657292473861,-212,-1121,96
1657292473901,-390,-905,242
1657292473941,-167,-893,143
1657292473981,-22,-920,-6
1657292474021,-184,-888,128
1657292474061,-158,-846,247
1657292474101,-182,-837,165
1657292474141,-174,-870,82
1657292474181,-174,-874,107
1657292474221,-173,-885,133
1657292474261,-166,-929,104
