timestamp,accel_X,accel_Y,accel_Z
1657292684701,-109,-135,-805
1657292684741,-229,-379,-1220
1657292684781,-186,-289,-1117
1657292684821,-80,-281,-1007
1657292684861,-99,-27,-1026
1657292684901,-147,54,-938
1657292684941,-380,78,-946
1657292684981,-443,203,-860
1657292685021,-587,262,-662
1657292685061,-801,45,-621
1657292685101,-776,2,-715
1657292685141,-754,141,-585
1657292685181,-753,-137,-702
1657292685221,-784,20,-674
1657292685261,-686,48,-524
1657292685301,-1099,-89,-932
1657292685341,-819,-16,-456
1657292685381,-652,30,-455
1657292685421,-928,-118,-865
1657292685461,-834,-119,-728
1657292685501,-680,-37,-705
1657292685541,-844,-32,-589
1657292685581,-948,-33,-622
1657292685621,-816,58,-540
1657292685661,-808,102,-587
1657292685701,-793,112,-467
1657292685741,-914,4,-478
1657292685781,-871,80,-590
1657292685821,-853,44,-506
1657292685861,-827,41,-557
1657292685901,-807,-29,-697
1657292685941,-735,84,-692
1657292685981,-592,67,-807
1657292686021,-383,111,-882
1657292686061,-469,34,-937
1657292686101,-420,-35,-998
1657292686141,-381,10,-901
1657292686181,-404,-103,-971
1657292686221,-272,-83,-916
1657292686261,-176,-46,-846
1657292686301,-303,-560,-1316
1657292686341,-247,33,-1249
1657292686381,-254,-27,-910
1657292686421,-354,76,-855
1657292686461,-295,235,-785
1657292686501,-377,253,-919
1657292686541,-473,166,-885
1657292686581,-444,151,-850
1657292686621,-377,163,-877
1657292686661,-487,80,-982
1657292686701,-368,135,-945
1657292686741,-324,137,-928
1657292686781,-267,133,-948
1657292686821,-265,154,-1001
1657292686861,-322,107,-1093
1657292686901,-268,120,-1003
1657292686941,-164,154,-855
1657292686981,-248,63,-976
1657292687021,-375,-10,-1047
1657292687061,-322,62,-1002
1657292687101,-269,49,-1005
1657292687141,-252,76,-983
1657292687181,-183,87,-952
1657292687221,-153,114,-964
1657292687261,-115,105,-974
1657292687301,-132,115,-987
1657292687341,-120,82,-1025
1657292687381,-182,64,-1063
1657292687421,-184,45,-1101
1657292687461,-87,159,-868
1657292687501,-259,1,-1233
1657292687541,-102,-5,-1150
1657292687581,-198,52,-1485
1657292687621,0,21,-942
1657292687661,-71,203,-807
1657292687701,-113,163,-793
1657292687741,-312,210,-909
1657292687781,-342,252,-801
1657292687821,-410,194,-815
1657292687861,-462,219,-964
1657292687901,-452,240,-862
1657292687941,-544,200,-899
1657292687981,-477,221,-862
1657292688021,-592,165,-929
1657292688061,-514,223,-822
1657292688101,-646,158,-878
1657292688141,-717,195,-888
1657292688181,-712,170,-758
1657292688221,-793,114,-680
1657292688261,-789,104,-694
1657292688301,-901,44,-666
1657292688341,-966,-9,-708
1657292688381,-1083,-123,-601
1657292688421,-980,-56,-551
1657292688461,-941,47,-470
1657292688501,-628,166,-374
1657292688541,-605,-28,-450
1657292688581,-722,-181,-662
1657292688621,-639,-65,-713
1657292688661,-635,-151,-640
1657292688701,-663,-286,-661
1657292688741,-604,-212,-782
1657292688781,-539,-269,-512
1657292688821,-717,-375,-779
1657292688861,-853,-491,-835
1657292688901,-837,-294,-445
1657292688941,-904,-316,-464
1657292688981,-862,-310,-542
1657292689021,-878,-302,-561
1657292689061,-868,-284,-386
1657292689101,-934,-300,-337
1657292689141,-1147,-291,192
1657292689181,-1000,-298,-132
1657292689221,-1037,-333,-115
1657292689261,-1022,-330,-162
1657292689301,-938,-319,-287
1657292689341,-888,-363,-354
1657292689381,-749,-351,-602
1657292689421,-733,-345,-533
1657292689461,-684,-260,-347
1657292689501,-677,-176,-271
1657292689541,-1046,-604,-422
1657292689581,-1063,-393,-131
1657292689621,-642,-615,-639
1657292689661,-673,-690,-810
1657292689701,-280,-592,-807
1657292689741,-54,-609,-751
1657292689781,263,-588,-957
1657292689821,109,-720,-1013
1657292689861,196,-666,-1019
1657292689901,115,-705,-889
1657292689941,130,-618,-763
1657292689981,32,-684,-918
1657292690021,24,-667,-856
1657292690061,3,-614,-778
1657292690101,-26,-602,-794
1657292690141,-14,-603,-781
1657292690181,-14,-614,-811
1657292690221,-30,-648,-823
1657292690261,-9,-623,-832
1657292690301,10,-590,-790
1657292690341,33,-609,-830
1657292690381,0,-633,-815
1657292690421,25,-654,-856
1657292690461,50,-638,-864
1657292690501,-61,-692,-801
1657292690541,29,-609,-845
1657292690581,10,-594,-799
1657292690621,-40,-631,-798
1657292690661,-22,-611,-791
1657292690701,-43,-627,-788
1657292690741,-33,-636,-812
1657292690781,-32,-644,-791
1657292690821,7,-695,-829
1657292690861,24,-665,-794
1657292690901,-57,-655,-700
1657292690941,-185,-628,-676
1657292690981,-278,-538,-607
1657292691021,-399,-525,-611
1657292691061,-460,-507,-618
1657292691101,-618,-538,-574
1657292691141,-506,-526,-654
1657292691181,-499,-517,-668
1657292691221,-497,-513,-543
1657292691261,-532,-629,-466
1657292691301,-681,-848,-532
1657292691341,-565,-790,-439
1657292691381,-617,-905,-317
1657292691421,-699,-983,-308
1657292691461,-732,-1021,-220
1657292691501,-745,-1018,-236
1657292691541,-694,-936,-248
1657292691581,-644,-869,-187
1657292691621,-595,-756,-51
1657292691661,-643,-779,-55
1657292691701,-659,-813,2
1657292691741,-551,-718,116
1657292691781,-494,-631,126
1657292691821,-589,-656,172
1657292691861,-734,-1137,-239
1657292691901,-731,-944,-331
1657292691941,-758,-787,195
1657292691981,-710,-691,400
1657292692021,-738,-707,303
1657292692061,-828,-781,193
1657292692101,-763,-726,156
1657292692141,-681,-650,149
1657292692181,-675,-652,137
1657292692221,-725,-680,195
1657292692261,-719,-711,200
1657292692301,-775,-787,152
1657292692341,-744,-791,91
1657292692381,-641,-775,100
1657292692421,-691,-824,82
1657292692461,-687,-852,-21
1657292692501,-609,-775,50
1657292692541,-638,-772,92
1657292692581,-653,-751,59
1657292692621,-641,-708,84
1657292692661,-607,-637,105
1657292692701,-636,-630,67
1657292692741,-651,-604,82
1657292692781,-772,-723,154
1657292692821,-848,-777,126
1657292692861,-830,-827,73
1657292692901,-815,-833,48
1657292692941,-723,-798,-13
1657292692981,-656,-755,-19
1657292693021,-655,-733,24
1657292693061,-669,-721,64
1657292693101,-665,-723,80
1657292693141,-696,-764,53
1657292693181,-715,-790,37
1657292693221,-715,-813,5
1657292693261,-713,-817,-8
1657292693301,-666,-783,-12
1657292693341,-667,-790,-9
1657292693381,-661,-805,-18
1657292693421,-662,-809,-7
1657292693461,-633,-769,12
1657292693501,-665,-779,44
1657292693541,-652,-789,42
1657292693581,-640,-761,47
1657292693621,-615,-763,45
1657292693661,-625,-792,29
1657292693701,-601,-775,35
1657292693741,-648,-848,16
1657292693781,-776,-921,17
1657292693821,-770,-890,69
1657292693861,-672,-763,128
1657292693901,-637,-716,163
1657292693941,-627,-730,161
1657292693981,-627,-756,171
1657292694021,-646,-806,171
1657292694061,-681,-855,125
1657292694101,-676,-821,141
1657292694141,-687,-776,183
1657292694181,-690,-743,132
1657292694221,-641,-710,103
1657292694261,-625,-697,79
1657292694301,-598,-687,97
1657292694341,-689,-774,82
1657292694381,-758,-831,64
1657292694421,-746,-842,77
1657292694461,-708,-801,73
1657292694501,-680,-787,58
1657292694541,-658,-783,46
1657292694581,-676,-790,27
1657292694621,-623,-723,67
1657292694661,-636,-705,101
1657292694701,-730,-825,118
1657292694741,-941,-1036,51
1657292694781,-876,-913,25
1657292694821,-627,-685,83
1657292694861,-599,-669,19
1657292694901,-552,-714,-57
1657292694941,-585,-792,-161
1657292694981,-682,-871,-133
1657292695021,-680,-839,-64
1657292695061,-762,-974,-67
1657292695101,-710,-868,-178
1657292695141,-609,-771,-100
1657292695181,-705,-683,-96
1657292695221,-757,-619,-163
1657292695261,-833,-585,-199
1657292695301,-1065,-564,-516
1657292695341,-925,-438,-24
1657292695381,-907,-323,-365
1657292695421,-912,-211,-289
1657292695461,-842,-138,-355
1657292695501,-817,-97,-312
1657292695541,-783,-22,-358
1657292695581,-830,-27,-376
1657292695621,-958,-101,-408
1657292695661,-973,-130,-515
1657292695701,-958,-87,-452
1657292695741,-837,-62,-460
1657292695781,-815,-23,-538
1657292695821,-844,14,-560
1657292695861,-864,-16,-568
1657292695901,-863,-11,-565
1657292695941,-875,-7,-579
1657292695981,-834,-23,-661
1657292696021,-827,-2,-614
1657292696061,-795,8,-621
1657292696101,-794,36,-612
1657292696141,-829,17,-620
1657292696181,-802,45,-587
1657292696221,-862,34,-656
1657292696261,-832,32,-680
1657292696301,-818,33,-642
1657292696341,-794,29,-653
1657292696381,-819,-16,-646
1657292696421,-767,6,-657
1657292696461,-754,24,-619
1657292696501,-766,13,-647
1657292696541,-756,18,-615
1657292696581,-846,-30,-734
1657292696621,-772,-3,-688
1657292696661,-758,10,-699
1657292696701,-757,34,-713
1657292696741,-703,46,-702
1657292696781,-696,45,-697
1657292696821,-806,-33,-747
1657292696861,-829,-29,-734
1657292696901,-766,-8,-725
1657292696941,-726,7,-698
1657292696981,-717,44,-650
1657292697021,-726,46,-697
1657292697061,-756,18,-816
1657292697101,-747,40,-734
1657292697141,-691,50,-751
1657292697181,-732,32,-726
1657292697221,-761,33,-703
1657292697261,-713,35,-754
1657292697301,-732,44,-733
1657292697341,-723,44,-739
1657292697381,-724,47,-737
1657292697421,-740,60,-714
1657292697461,-749,63,-731
1657292697501,-696,78,-735
1657292697541,-652,88,-774
1657292697581,-572,90,-711
1657292697621,-581,30,-687
1657292697661,-1252,11,-990
1657292697701,-455,19,-775
1657292697741,-844,-109,-927
1657292697781,-613,-110,-1017
1657292697821,-718,-51,-534
1657292697861,-601,34,-651
1657292697901,-704,-18,-734
1657292697941,-677,52,-645
1657292697981,-710,-1,-662
1657292698021,-717,2,-686
1657292698061,-677,-9,-568
1657292698101,-739,-48,-625
1657292698141,-756,-46,-698
1657292698181,-833,-53,-689
1657292698221,-871,-65,-679
1657292698261,-889,-25,-812
1657292698301,-887,-4,-712
1657292698341,-837,-32,-665
1657292698381,-735,7,-456
1657292698421,-740,2,-459
1657292698461,-774,-12,-583
1657292698501,-889,-89,-681
1657292698541,-862,-70,-543
1657292698581,-757,-43,-527
1657292698621,-744,-26,-564
1657292698661,-793,-46,-632
1657292698701,-900,-89,-718
1657292698741,-1032,-198,-817
1657292698781,-1096,-242,-721
1657292698821,-1122,-322,-763
1657292698861,-929,-297,-800
1657292698901,-740,-258,-659
1657292698941,-620,-254,-527
1657292698981,-622,-280,-491
1657292699021,-718,-353,-585
1657292699061,-741,-325,-539
1657292699101,-647,-212,-456
1657292699141,-617,-116,-450
1657292699181,-710,-91,-477
1657292699221,-843,-101,-540
1657292699261,-917,-103,-583
1657292699301,-952,-112,-566
1657292699341,-924,-111,-552
1657292699381,-928,-131,-629
1657292699421,-989,-161,-599
1657292699461,-1131,-240,-554
1657292699501,-1191,-330,-585
1657292699541,-913,-262,-474
1657292699581,-673,-177,-281
1657292699621,-696,-172,-321
1657292699661,-854,-225,-459
1657292699701,-1004,-290,-449
1657292699741,-944,-281,-403
1657292699781,-811,-243,-324
1657292699821,-739,-255,-286
1657292699861,-747,-322,-356
1657292699901,-686,-311,-402
1657292699941,-488,-275,-311
1657292699981,-538,-500,-295
1657292700021,-608,-612,-429
1657292700061,-382,-612,-389
1657292700101,-506,-1027,-445
1657292700141,-416,-703,-364
1657292700181,-406,-890,-79
1657292700221,-430,-1200,13
1657292700261,-495,-1389,138
1657292700301,-571,-1383,379
1657292700341,-785,-1255,571
1657292700381,-670,-1084,421
1657292700421,-426,-982,166
1657292700461,-338,-899,-13
1657292700501,-317,-864,-28
1657292700541,-369,-945,-71
1657292700581,-359,-964,-76
1657292700621,-344,-1049,-2
1657292700661,-371,-1114,12
1657292700701,-352,-1130,74
1657292700741,-496,-1104,51
1657292700781,-516,-1041,-111
1657292700821,-386,-1037,111
1657292700861,-252,-1071,247
1657292700901,-250,-1015,411
1657292700941,-224,-913,493
1657292700981,-87,-838,391
1657292701021,-72,-842,279
1657292701061,-104,-840,170
1657292701101,-103,-834,138
1657292701141,-125,-904,132
1657292701181,-168,-1002,63
1657292701221,-183,-1081,58
1657292701261,-185,-1179,28
1657292701301,-192,-1224,35
1657292701341,-388,-1090,134
1657292701381,-427,-1048,220
1657292701421,-283,-985,169
1657292701461,-136,-928,38
1657292701501,-295,-856,38
1657292701541,-320,-835,266
1657292701581,-125,-822,68
1657292701621,-195,-926,97
1657292701661,-152,-948,19
1657292701701,-168,-975,86
1657292701741,-189,-1062,4
1657292701781,-202,-1227,-67
1657292701821,-163,-1358,50
1657292701861,-418,-1435,9
1657292701901,-461,-1307,111
1657292701941,-249,-1146,147
1657292701981,-186,-1016,144
1657292702021,-190,-889,151
1657292702061,-75,-785,212
1657292702101,-79,-755,189
1657292702141,-117,-834,192
1657292702181,-62,-891,209
1657292702221,-29,-1013,211
1657292702261,-114,-1161,211
1657292702301,-118,-1220,206
1657292702341,-16,-1296,50
1657292702381,-157,-1113,273
1657292702421,-235,-1102,251
1657292702461,-166,-959,-9
1657292702501,-220,-685,87
1657292702541,-262,-629,13
1657292702581,-368,-722,-68
1657292702621,-315,-821,29
1657292702661,-257,-891,93
1657292702701,-338,-1024,82
1657292702741,-297,-1137,177
1657292702781,-390,-1339,160
1657292702821,-499,-1397,189
1657292702861,-693,-1390,127
1657292702901,-515,-1297,74
1657292702941,-322,-1187,187
1657292702981,-235,-976,270
1657292703021,-169,-847,309
1657292703061,-84,-786,254
1657292703101,-31,-798,196
1657292703141,6,-861,176
1657292703181,80,-944,141
1657292703221,42,-1144,107
1657292703261,-14,-1193,144
1657292703301,0,-1195,59
1657292703341,-235,-1015,195
1657292703381,-281,-1040,168
1657292703421,-134,-960,47
1657292703461,-274,-773,169
1657292703501,-343,-716,183
1657292703541,-380,-779,68
1657292703581,-349,-900,72
1657292703621,-334,-1016,80
1657292703661,-349,-1142,-47
1657292703701,-360,-1228,106
1657292703741,-461,-1358,137
1657292703781,-549,-1368,166
1657292703821,-530,-1410,212
1657292703861,-330,-1335,151
1657292703901,-252,-1105,268
1657292703941,-215,-918,308
1657292703981,-129,-790,308
1657292704021,-32,-730,300
1657292704061,-40,-755,232
1657292704101,13,-843,167
1657292704141,32,-950,134
1657292704181,-4,-1163,167
1657292704221,-98,-1276,190
1657292704261,-93,-1202,157
1657292704301,-244,-1048,224
1657292704341,-194,-1085,64
1657292704381,-210,-927,-41
1657292704421,-297,-707,23
1657292704461,-333,-660,-86
1657292704501,-354,-798,-76
1657292704541,-379,-881,29
1657292704581,-307,-891,166
1657292704621,-318,-1021,192
1657292704661,-395,-1191,113
1657292704701,-320,-1411,168
1657292704741,-539,-1453,119
1657292704781,-787,-1481,59
1657292704821,-505,-1286,179
1657292704861,-281,-1030,282
1657292704901,-222,-800,313
1657292704941,-123,-741,313
1657292704981,-42,-805,250
1657292705021,-57,-840,198
1657292705061,-56,-892,184
1657292705101,-42,-1010,144
1657292705141,-21,-1134,79
1657292705181,-98,-1283,12
1657292705221,-213,-1131,117
1657292705261,-337,-1156,162
1657292705301,-187,-1079,75
1657292705341,-316,-830,1
1657292705381,-372,-637,53
1657292705421,-344,-640,-64
1657292705461,-328,-729,-82
1657292705501,-279,-837,2
1657292705541,-331,-945,32
1657292705581,-269,-1064,114
1657292705621,-295,-1194,121
1657292705661,-387,-1301,108
1657292705701,-492,-1261,182
1657292705741,-596,-1341,85
1657292705781,-559,-1231,22
1657292705821,-363,-1007,185
1657292705861,-306,-826,237
1657292705901,-280,-785,216
1657292705941,-189,-770,258
1657292705981,-251,-893,247
1657292706021,-350,-1116,262
1657292706061,-439,-1309,370
1657292706101,-499,-1425,429
1657292706141,-557,-1518,303
1657292706181,-622,-1390,228
1657292706221,-869,-1236,334
1657292706261,-674,-1022,130
1657292706301,-797,-829,57
1657292706341,-954,-528,237
1657292706381,-817,-406,170
1657292706421,-975,-374,-111
1657292706461,-994,-296,22
1657292706501,-1040,-17,-93
1657292706541,-915,-7,181
1657292706581,-554,447,-28
1657292706621,-419,772,216
1657292706661,-543,744,340
1657292706701,-446,724,630
1657292706741,-427,697,294
1657292706781,-176,595,564
1657292706821,-216,377,325
1657292706861,25,550,18
1657292706901,-120,541,355
1657292706941,63,713,161
1657292706981,18,904,102
1657292707021,-97,908,265
1657292707061,-279,754,712
1657292707101,-528,667,538
1657292707141,-120,720,401
1657292707181,-257,629,68
1657292707221,-616,204,71
1657292707261,-616,275,27
1657292707301,-667,299,134
1657292707341,-641,141,95
1657292707381,-933,-3,247
1657292707421,-865,178,302
1657292707461,-670,152,214
1657292707501,-825,-65,73
1657292707541,-857,-316,93
1657292707581,-1933,-1494,413
1657292707621,-2048,-1537,1028
1657292707661,-1410,-963,1126
1657292707701,-898,-813,788
1657292707741,-634,-546,625
1657292707781,-443,-417,479
1657292707821,-410,-363,370
1657292707861,-361,-361,257
1657292707901,-416,-461,104
1657292707941,-442,-570,68
1657292707981,-497,-716,36
1657292708021,-346,-770,74
1657292708061,-612,-1166,40
1657292708101,-537,-1101,155
1657292708141,-523,-1111,190
1657292708181,-407,-1071,179
1657292708221,-455,-966,269
1657292708261,-625,-885,397
1657292708301,-604,-839,398
1657292708341,-516,-1046,203
1657292708381,-275,-985,131
1657292708421,-193,-815,495
1657292708461,-251,-895,436
1657292708501,-349,-1265,155
1657292708541,-629,-1399,139
1657292708581,-929,-1377,332
1657292708621,-883,-1292,374
1657292708661,-605,-1154,225
1657292708701,-416,-941,245
1657292708741,-261,-860,343
1657292708781,-83,-760,440
1657292708821,22,-843,294
1657292708861,53,-918,216
1657292708901,51,-1093,230
1657292708941,15,-1237,176
1657292708981,-115,-1238,199
1657292709021,-127,-1116,232
1657292709061,-273,-1039,243
1657292709101,-349,-1030,196
1657292709141,-334,-823,96
1657292709181,-398,-690,162
1657292709221,-442,-689,104
1657292709261,-357,-712,60
1657292709301,-325,-767,128
1657292709341,-258,-899,142
1657292709381,-292,-1093,170
1657292709421,-360,-1363,183
1657292709461,-536,-1658,182
1657292709501,-794,-1494,357
1657292709541,-621,-1266,411
1657292709581,-291,-1064,295
1657292709621,-196,-890,197
1657292709661,-147,-769,214
1657292709701,-105,-726,230
1657292709741,-102,-747,230
1657292709781,-21,-781,204
1657292709821,-5,-895,180
1657292709861,1,-1131,231
1657292709901,-71,-1184,336
1657292709941,-10,-1327,264
1657292709981,-234,-1152,301
1657292710021,-358,-1126,305
1657292710061,-282,-985,97
1657292710101,-362,-730,96
1657292710141,-391,-651,76
1657292710181,-376,-727,50
1657292710221,-345,-847,82
1657292710261,-307,-971,167
1657292710301,-294,-1044,203
1657292710341,-294,-1090,306
1657292710381,-371,-1339,207
1657292710421,-449,-1367,255
1657292710461,-668,-1412,297
1657292710501,-579,-1284,204
1657292710541,-358,-1037,246
1657292710581,-282,-822,272
1657292710621,-174,-740,286
1657292710661,-46,-737,229
1657292710701,-53,-824,145
1657292710741,-2,-932,186
1657292710781,48,-1070,224
1657292710821,-51,-1178,290
1657292710861,-45,-1318,267
1657292710901,-131,-1096,271
1657292710941,-261,-1123,298
1657292710981,-224,-1063,51
1657292711021,-357,-815,7
1657292711061,-387,-688,0
1657292711101,-360,-665,-29
1657292711141,-272,-844,85
1657292711181,-213,-787,123
1657292711221,-195,-877,218
1657292711261,-189,-1061,219
1657292711301,-368,-1373,157
1657292711341,-506,-1483,172
1657292711381,-805,-1520,212
1657292711421,-631,-1379,183
1657292711461,-394,-1173,195
1657292711501,-304,-918,241
1657292711541,-227,-770,276
1657292711581,-128,-707,241
1657292711621,-60,-736,215
1657292711661,-23,-817,195
1657292711701,29,-986,170
1657292711741,15,-1160,242
1657292711781,-70,-1267,322
1657292711821,-72,-1242,214
1657292711861,-220,-1106,275
1657292711901,-177,-1057,170
1657292711941,-238,-915,40
1657292711981,-299,-695,26
1657292712021,-335,-646,-14
1657292712061,-336,-725,-24
1657292712101,-303,-822,70
1657292712141,-245,-943,109
1657292712181,-313,-1095,144
1657292712221,-354,-1206,211
1657292712261,-457,-1331,245
1657292712301,-472,-1330,281
1657292712341,-601,-1318,269
1657292712381,-613,-1232,35
1657292712421,-384,-1119,98
1657292712461,-247,-884,245
1657292712501,-225,-771,297
1657292712541,-128,-728,286
1657292712581,-17,-730,225
1657292712621,-33,-872,185
1657292712661,27,-1048,163
1657292712701,-53,-1201,243
1657292712741,-48,-1330,278
1657292712781,-73,-1259,184
1657292712821,-251,-1124,330
1657292712861,-191,-1108,113
1657292712901,-237,-952,-37
1657292712941,-285,-685,0
1657292712981,-275,-616,-17
1657292713021,-254,-608,9
1657292713061,-258,-701,141
1657292713101,-278,-848,179
1657292713141,-278,-1016,175
1657292713181,-321,-1177,188
1657292713221,-432,-1422,151
1657292713261,-516,-1470,210
1657292713301,-732,-1382,313
1657292713341,-672,-1266,219
1657292713381,-377,-1071,173
1657292713421,-274,-850,222
1657292713461,-187,-761,256
1657292713501,-97,-735,261
1657292713541,-85,-825,213
1657292713581,-61,-901,215
1657292713621,-31,-987,256
1657292713661,55,-1150,320
1657292713701,-27,-1245,244
1657292713741,20,-1243,163
1657292713781,-280,-1104,234
1657292713821,-344,-1162,46
1657292713861,-137,-931,9
1657292713901,-252,-694,89
1657292713941,-294,-613,58
1657292713981,-336,-661,27
1657292714021,-430,-777,65
1657292714061,-330,-887,132
1657292714101,-294,-1006,151
1657292714141,-289,-1115,188
1657292714181,-282,-1244,222
1657292714221,-365,-1386,251
1657292714261,-586,-1412,244
1657292714301,-577,-1388,164
1657292714341,-359,-1171,270
1657292714381,-259,-899,316
1657292714421,-224,-753,307
1657292714461,-115,-700,230
1657292714501,-51,-707,157
1657292714541,-70,-830,147
1657292714581,9,-920,153
1657292714621,-6,-1133,188
1657292714661,-66,-1163,227
1657292714701,-64,-1292,166
1657292714741,-261,-1153,213
1657292714781,-333,-1235,268
1657292714821,-275,-1199,24
1657292714861,-337,-862,92
1657292714901,-306,-623,113
1657292714941,-235,-548,48
1657292714981,-338,-595,49
1657292715021,-453,-727,284
1657292715061,-445,-889,214
1657292715101,-416,-1031,140
1657292715141,-353,-1119,118
1657292715181,-278,-1315,165
1657292715221,-424,-1267,364
1657292715261,-478,-1333,398
1657292715301,-466,-1230,273
1657292715341,-287,-944,341
1657292715381,-240,-693,350
1657292715421,-172,-627,259
1657292715461,-123,-638,198
1657292715501,-151,-733,143
1657292715541,-150,-972,96
1657292715581,-207,-1237,137
1657292715621,-222,-1309,322
1657292715661,-137,-1479,275
1657292715701,-88,-1438,224
1657292715741,-364,-1215,342
1657292715781,-239,-1048,44
1657292715821,-96,-704,-154
1657292715861,-143,-422,-96
1657292715901,-175,-428,-92
1657292715941,-299,-666,0
1657292715981,-490,-876,88
1657292716021,-392,-844,168
1657292716061,-364,-894,129
1657292716101,-344,-1035,114
1657292716141,-396,-1176,105
1657292716181,-430,-1264,148
1657292716221,-535,-1264,348
1657292716261,-739,-1318,224
1657292716301,-514,-1122,68
1657292716341,-392,-913,180
1657292716381,-366,-767,227
1657292716421,-283,-724,247
1657292716461,-218,-757,213
1657292716501,-139,-810,168
1657292716541,-99,-956,159
1657292716581,-97,-1114,169
1657292716621,-71,-1329,204
1657292716661,-107,-1343,245
1657292716701,-78,-1260,186
1657292716741,-295,-1069,232
1657292716781,-183,-1024,60
1657292716821,-100,-822,17
1657292716861,-246,-662,98
1657292716901,-290,-648,90
1657292716941,-256,-682,54
1657292716981,-268,-761,77
1657292717021,-220,-844,97
1657292717061,-192,-991,112
1657292717101,-222,-1209,148
1657292717141,-340,-1383,189
1657292717181,-453,-1431,236
1657292717221,-643,-1424,261
1657292717261,-592,-1353,153
1657292717301,-448,-1135,242
1657292717341,-218,-895,304
1657292717381,-228,-766,246
1657292717421,-87,-720,264
1657292717461,-39,-712,201
1657292717501,-95,-790,207
1657292717541,-96,-904,245
1657292717581,-32,-1000,227
1657292717621,-43,-1149,226
1657292717661,-182,-1217,224
1657292717701,-93,-1360,21
1657292717741,-167,-1323,111
1657292717781,-207,-1175,264
1657292717821,-155,-941,205
1657292717861,-164,-649,167
1657292717901,-217,-577,46
1657292717941,-262,-632,-34
1657292717981,-267,-771,100
1657292718021,-247,-910,125
1657292718061,-276,-1060,100
1657292718101,-283,-1189,112
1657292718141,-333,-1321,97
1657292718181,-322,-1443,103
1657292718221,-472,-1348,242
1657292718261,-615,-1339,247
1657292718301,-435,-1171,179
1657292718341,-266,-936,228
1657292718381,-295,-910,159
1657292718421,-137,-717,202
1657292718461,-30,-662,292
1657292718501,-43,-806,185
1657292718541,-5,-975,127
1657292718581,14,-1174,209
1657292718621,-70,-1234,293
1657292718661,-30,-1355,231
1657292718701,-191,-1153,236
1657292718741,-234,-1217,142
1657292718781,-187,-1094,17
1657292718821,-296,-769,24
1657292718861,-303,-674,-50
1657292718901,-248,-628,-100
1657292718941,-204,-662,-33
1657292718981,-196,-776,70
1657292719021,-181,-890,111
1657292719061,-218,-1065,132
1657292719101,-297,-1254,101
1657292719141,-365,-1465,122
1657292719181,-493,-1543,-160
1657292719221,-573,-1526,153
1657292719261,-305,-1139,350
1657292719301,-161,-912,332
1657292719341,-115,-650,260
1657292719381,-148,-588,206
1657292719421,-148,-663,176
1657292719461,-94,-764,193
1657292719501,-143,-957,208
1657292719541,-119,-1207,195
1657292719581,-66,-1410,182
1657292719621,-14,-1385,293
1657292719661,21,-1216,251
1657292719701,-231,-1026,274
1657292719741,-142,-992,-43
1657292719781,-144,-871,-175
1657292719821,-173,-642,-6
1657292719861,-217,-637,-10
1657292719901,-248,-664,-20
1657292719941,-177,-809,88
1657292719981,-136,-890,102
1657292720021,-146,-992,129
1657292720061,-174,-1211,145
1657292720101,-321,-1503,93
1657292720141,-432,-1531,154
1657292720181,-676,-1445,177
1657292720221,-500,-1297,64
1657292720261,-304,-1081,147
1657292720301,-224,-856,262
1657292720341,-158,-747,287
1657292720381,-72,-725,293
1657292720421,-96,-774,257
1657292720461,-47,-851,200
1657292720501,-27,-955,175
1657292720541,13,-1113,159
1657292720581,47,-1189,141
1657292720621,-71,-1290,110
1657292720661,-180,-1189,78
1657292720701,-241,-1099,167
1657292720741,-177,-1090,49
1657292720781,-223,-931,60
1657292720821,-253,-727,76
1657292720861,-328,-690,42
1657292720901,-325,-756,-10
1657292720941,-242,-801,59
1657292720981,-228,-908,130
1657292721021,-212,-1034,151
1657292721061,-254,-1217,175
1657292721101,-349,-1358,80
1657292721141,-318,-1286,197
1657292721181,-459,-1248,239
1657292721221,-491,-1298,92
1657292721261,-393,-1169,100
1657292721301,-251,-910,242
1657292721341,-199,-744,264
1657292721381,-87,-693,228
1657292721421,-32,-705,201
1657292721461,-118,-835,159
1657292721501,-56,-980,118
1657292721541,-6,-1138,115
1657292721581,-92,-1248,145
1657292721621,-84,-1289,183
1657292721661,-148,-1187,188
1657292721701,-261,-1156,173
1657292721741,-198,-1081,85
1657292721781,-211,-846,27
1657292721821,-262,-687,-4
1657292721861,-218,-667,-46
1657292721901,-152,-688,30
1657292721941,-189,-780,95
1657292721981,-265,-879,91
1657292722021,-233,-1034,129
1657292722061,-263,-1175,134
1657292722101,-287,-1429,61
1657292722141,-453,-1380,182
1657292722181,-601,-1434,212
1657292722221,-491,-1286,278
1657292722261,-369,-1049,355
1657292722301,-307,-811,333
1657292722341,-196,-719,262
1657292722381,-55,-685,163
1657292722421,-7,-736,52
1657292722461,-81,-931,105
1657292722501,2,-1006,161
1657292722541,7,-1176,288
1657292722581,-51,-1237,337
1657292722621,-62,-1288,373
1657292722661,-278,-1075,462
1657292722701,-249,-1127,319
1657292722741,-236,-974,172
1657292722781,-277,-712,85
1657292722821,-263,-607,64
1657292722861,-216,-621,17
1657292722901,-156,-795,8
1657292722941,-130,-895,135
1657292722981,-201,-1019,207
1657292723021,-237,-1136,206
1657292723061,-244,-1162,207
1657292723101,-264,-1312,173
1657292723141,-491,-1426,187
1657292723181,-605,-1450,155
1657292723221,-366,-1159,234
1657292723261,-241,-884,271
1657292723301,-192,-747,247
1657292723341,-68,-657,187
1657292723381,-79,-688,180
1657292723421,-58,-779,170
1657292723461,-32,-960,151
1657292723501,-27,-1101,142
1657292723541,-5,-1260,225
1657292723581,-141,-1322,195
1657292723621,-143,-1229,204
1657292723661,-260,-1065,289
1657292723701,-188,-1054,89
1657292723741,-290,-950,-62
1657292723781,-277,-724,36
1657292723821,-267,-682,62
1657292723861,-206,-705,44
1657292723901,-162,-806,89
1657292723941,-207,-919,174
1657292723981,-245,-1040,150
1657292724021,-289,-1150,112
1657292724061,-285,-1266,121
1657292724101,-389,-1271,203
1657292724141,-548,-1325,235
1657292724181,-448,-1320,236
1657292724221,-358,-1148,235
1657292724261,-282,-904,284
1657292724301,-204,-750,246
1657292724341,-97,-703,185
1657292724381,-123,-705,190
1657292724421,-100,-741,197
1657292724461,-66,-867,182
1657292724501,-63,-1046,173
1657292724541,-69,-1245,203
1657292724581,-203,-1453,143
1657292724621,-235,-1304,161
1657292724661,-263,-1130,288
1657292724701,-191,-1044,166
1657292724741,-137,-916,33
1657292724781,-187,-670,71
1657292724821,-252,-640,23
1657292724861,-254,-679,39
1657292724901,-281,-766,100
1657292724941,-311,-862,154
1657292724981,-274,-975,108
1657292725021,-247,-1142,104
1657292725061,-235,-1303,116
1657292725101,-137,-1380,244
1657292725141,-421,-1307,348
1657292725181,-551,-1320,233
1657292725221,-381,-1157,102
1657292725261,-255,-934,146
1657292725301,-231,-773,163
1657292725341,-171,-704,178
1657292725381,-154,-680,187
1657292725421,-132,-835,160
1657292725461,-42,-978,177
1657292725501,6,-1123,226
1657292725541,-39,-1225,293
1657292725581,-99,-1349,234
1657292725621,-117,-1223,171
1657292725661,-147,-1121,188
1657292725701,-99,-1095,-17
1657292725741,-154,-869,-43
1657292725781,-218,-662,-27
1657292725821,-260,-646,-90
1657292725861,-218,-681,-32
1657292725901,-158,-738,129
1657292725941,-162,-814,204
1657292725981,-164,-1014,155
1657292726021,-222,-1175,173
1657292726061,-283,-1334,190
1657292726101,-288,-1443,242
1657292726141,-530,-1398,300
1657292726181,-604,-1389,216
1657292726221,-474,-1213,131
1657292726261,-316,-985,153
1657292726301,-250,-793,218
1657292726341,-135,-678,279
1657292726381,-95,-680,262
1657292726421,-76,-756,220
1657292726461,-104,-898,229
1657292726501,-46,-1044,229
1657292726541,-9,-1248,179
1657292726581,-62,-1353,152
1657292726621,-29,-1283,184
1657292726661,-215,-1058,328
1657292726701,-262,-1071,180
1657292726741,-165,-950,-18
1657292726781,-208,-704,73
1657292726821,-245,-640,5
1657292726861,-232,-695,-8
1657292726901,-247,-780,58
1657292726941,-202,-843,165
1657292726981,-241,-990,185
1657292727021,-216,-1104,182
1657292727061,-259,-1299,163
1657292727101,-256,-1451,152
1657292727141,-469,-1391,257
1657292727181,-612,-1399,157
1657292727221,-400,-1208,93
1657292727261,-219,-973,213
1657292727301,-170,-790,211
1657292727341,-141,-705,231
1657292727381,-102,-705,234
1657292727421,-52,-734,195
1657292727461,-62,-836,173
1657292727501,-3,-1006,202
1657292727541,32,-1216,212
1657292727581,-38,-1423,243
1657292727621,-10,-1358,256
1657292727661,-233,-1165,415
1657292727701,-178,-1236,140
1657292727741,-208,-1022,-109
1657292727781,-229,-665,-58
1657292727821,-267,-587,-102
1657292727861,-297,-653,-65
1657292727901,-268,-724,70
1657292727941,-274,-825,142
1657292727981,-250,-994,117
1657292728021,-220,-1164,145
1657292728061,-319,-1342,200
1657292728101,-277,-1336,360
1657292728141,-458,-1278,460
1657292728181,-551,-1302,280
1657292728221,-448,-1137,195
1657292728261,-292,-846,280
1657292728301,-212,-658,283
1657292728341,-81,-638,222
1657292728381,-96,-710,170
1657292728421,-48,-788,178
1657292728461,-54,-925,137
1657292728501,-91,-1129,129
1657292728541,-4,-1248,171
1657292728581,-86,-1419,170
1657292728621,-191,-1304,254
1657292728661,-252,-1260,345
1657292728701,-234,-1198,170
1657292728741,-192,-866,183
1657292728781,-221,-636,133
1657292728821,-220,-581,0
1657292728861,-206,-624,-2
1657292728901,-226,-726,80
1657292728941,-197,-845,137
1657292728981,-163,-984,149
1657292729021,-119,-1134,216
1657292729061,-211,-1344,202
1657292729101,-207,-1401,261
1657292729141,-396,-1388,311
1657292729181,-565,-1406,126
1657292729221,-374,-1145,164
1657292729261,-241,-880,237
1657292729301,-199,-715,240
1657292729341,-147,-645,233
1657292729381,-95,-684,186
1657292729421,-68,-771,177
1657292729461,-64,-932,154
1657292729501,-31,-1107,186
1657292729541,-28,-1273,265
1657292729581,2,-1388,276
1657292729621,-12,-1209,284
1657292729661,-240,-1099,384
1657292729701,-140,-1083,157
1657292729741,-139,-971,-17
1657292729781,-192,-726,11
1657292729821,-276,-700,-27
1657292729861,-246,-703,-57
1657292729901,-180,-778,33
1657292729941,-138,-835,144
1657292729981,-190,-929,199
1657292730021,-185,-1064,174
1657292730061,-244,-1274,118
1657292730101,-224,-1449,135
1657292730141,-420,-1371,319
1657292730181,-577,-1383,287
1657292730221,-432,-1227,205
1657292730261,-264,-995,232
1657292730301,-195,-778,236
1657292730341,-159,-668,261
1657292730381,-133,-673,234
1657292730421,-116,-741,190
1657292730461,-100,-881,161
1657292730501,-38,-1007,199
1657292730541,49,-1147,282
1657292730581,-62,-1284,285
1657292730621,-34,-1366,163
1657292730661,-221,-1172,288
1657292730701,-210,-1181,145
1657292730741,-144,-1035,-14
1657292730781,-240,-772,-11
1657292730821,-280,-681,-22
1657292730861,-247,-702,-55
1657292730901,-186,-796,-49
1657292730941,-109,-819,67
1657292730981,-136,-856,171
1657292731021,-117,-970,204
1657292731061,-146,-1119,142
1657292731101,-193,-1348,83
1657292731141,-354,-1336,224
1657292731181,-579,-1357,186
1657292731221,-524,-1374,7
1657292731261,-383,-1103,103
1657292731301,-294,-839,201
1657292731341,-254,-721,226
1657292731381,-208,-707,215
1657292731421,-141,-757,212
1657292731461,-125,-860,198
1657292731501,-99,-1024,217
1657292731541,-17,-1189,256
1657292731581,-88,-1325,282
1657292731621,-13,-1445,216
1657292731661,-194,-1145,329
1657292731701,-132,-1139,132
1657292731741,-72,-1016,-38
1657292731781,-124,-750,-41
1657292731821,-172,-584,-32
1657292731861,-164,-621,-77
1657292731901,-121,-703,-7
1657292731941,-152,-817,129
1657292731981,-209,-925,198
1657292732021,-194,-1129,169
1657292732061,-367,-1367,125
1657292732101,-372,-1415,200
1657292732141,-510,-1226,318
1657292732181,-570,-1295,214
1657292732221,-505,-1255,48
1657292732261,-373,-1019,195
1657292732301,-277,-767,298
1657292732341,-190,-704,266
1657292732381,-103,-735,239
1657292732421,-95,-805,249
1657292732461,-75,-919,206
1657292732501,-7,-1119,225
1657292732541,17,-1245,231
1657292732581,-36,-1343,278
1657292732621,-38,-1216,220
1657292732661,-177,-1131,371
1657292732701,-171,-1140,140
1657292732741,-232,-943,-52
1657292732781,-184,-675,-32
1657292732821,-200,-633,-48
1657292732861,-188,-718,-31
1657292732901,-116,-782,118
1657292732941,-89,-839,209
1657292732981,-171,-965,230
1657292733021,-269,-1142,156
1657292733061,-313,-1370,86
1657292733101,-303,-1553,170
1657292733141,-359,-1316,470
1657292733181,-372,-1196,347
1657292733221,-226,-1075,99
1657292733261,-263,-860,149
1657292733301,-217,-674,204
1657292733341,-124,-642,166
1657292733381,-64,-695,59
1657292733421,-67,-767,134
1657292733461,-51,-930,195
1657292733501,-51,-1280,186
1657292733541,-183,-1446,294
1657292733581,-40,-1462,371
1657292733621,-146,-1229,382
1657292733661,-262,-1100,213
1657292733701,-46,-990,-14
1657292733741,-33,-768,-3
1657292733781,-126,-606,90
1657292733821,-193,-649,-25
1657292733861,-179,-710,-8
1657292733901,-175,-852,76
1657292733941,-265,-1023,95
1657292733981,-302,-1057,158
1657292734021,-244,-1082,192
1657292734061,-278,-1144,178
1657292734101,-313,-1189,197
1657292734141,-425,-1300,205
1657292734181,-511,-1435,75
1657292734221,-501,-1254,135
1657292734261,-360,-919,263
1657292734301,-262,-750,222
1657292734341,-116,-668,194
1657292734381,-62,-717,165
1657292734421,-45,-834,136
1657292734461,6,-1023,165
1657292734501,-15,-1277,254
1657292734541,-156,-1305,278
1657292734581,-53,-1284,151
1657292734621,-127,-1104,232
1657292734661,-105,-1068,177
1657292734701,-133,-1093,8
1657292734741,-166,-907,-45
1657292734781,-163,-689,15
1657292734821,-193,-643,-44
1657292734861,-121,-678,-70
1657292734901,-216,-805,64
1657292734941,-246,-926,165
1657292734981,-256,-1039,197
1657292735021,-343,-1186,187
1657292735061,-405,-1439,109
1657292735101,-504,-1367,224
1657292735141,-516,-1281,242
1657292735181,-499,-1186,232
1657292735221,-322,-1011,214
1657292735261,-222,-833,252
1657292735301,-177,-701,245
1657292735341,-172,-694,284
1657292735381,-86,-719,221
1657292735421,-84,-797,164
1657292735461,-75,-972,135
1657292735501,9,-1240,147
1657292735541,-114,-1367,144
1657292735581,-13,-1334,265
1657292735621,-38,-1205,172
1657292735661,-169,-1129,128
1657292735701,-156,-1070,19
1657292735741,-147,-887,18
1657292735781,-168,-677,60
1657292735821,-187,-631,56
1657292735861,-253,-722,59
1657292735901,-266,-815,127
1657292735941,-306,-917,165
1657292735981,-289,-1041,179
1657292736021,-322,-1249,198
1657292736061,-344,-1388,226
1657292736101,-410,-1318,285
1657292736141,-519,-1262,268
1657292736181,-421,-1202,146
1657292736221,-354,-1064,152
1657292736261,-257,-878,224
1657292736301,-290,-814,213
1657292736341,-229,-796,196
1657292736381,-138,-793,173
1657292736421,-58,-860,158
1657292736461,-11,-1043,114
1657292736501,114,-1172,182
1657292736541,3,-1235,284
1657292736581,75,-1334,229
1657292736621,-100,-1028,370
1657292736661,-63,-1079,230
1657292736701,-171,-1084,9
1657292736741,-229,-859,-19
1657292736781,-295,-681,23
1657292736821,-292,-670,-20
1657292736861,-295,-761,1
1657292736901,-225,-799,99
1657292736941,-206,-887,91
1657292736981,-282,-1107,154
1657292737021,-393,-1372,59
1657292737061,-401,-1575,95
1657292737101,-462,-1328,218
1657292737141,-469,-1122,368
1657292737181,-327,-1078,125
1657292737221,-273,-1038,11
1657292737261,-298,-860,226
1657292737301,-250,-758,298
1657292737341,-176,-723,300
1657292737381,-144,-789,251
1657292737421,-114,-839,241
1657292737461,-61,-969,250
1657292737501,16,-1107,212
1657292737541,19,-1239,216
1657292737581,-28,-1378,186
1657292737621,-205,-1213,223
1657292737661,-261,-1137,207
1657292737701,-171,-1030,42
1657292737741,-153,-806,113
1657292737781,-198,-631,97
1657292737821,-240,-658,0
1657292737861,-262,-756,39
1657292737901,-242,-866,180
1657292737941,-227,-989,209
1657292737981,-275,-1075,226
1657292738021,-291,-1164,193
1657292738061,-303,-1380,83
1657292738101,-290,-1333,269
1657292738141,-446,-1189,380
1657292738181,-382,-1278,236
1657292738221,-358,-1207,144
1657292738261,-290,-967,292
1657292738301,-208,-773,355
1657292738341,-110,-714,313
1657292738381,-49,-725,256
1657292738421,-17,-758,243
1657292738461,-9,-904,223
1657292738501,39,-1047,195
1657292738541,49,-1230,239
1657292738581,-99,-1280,264
1657292738621,-100,-1265,243
1657292738661,-104,-1310,197
1657292738701,-163,-1186,225
1657292738741,-137,-867,224
1657292738781,-139,-612,125
1657292738821,-170,-537,19
1657292738861,-201,-619,-26
1657292738901,-425,-834,-87
1657292738941,-352,-945,129
1657292738981,-211,-1015,174
1657292739021,-331,-1203,149
1657292739061,-336,-1281,211
1657292739101,-257,-1381,228
1657292739141,-430,-1276,334
1657292739181,-546,-1333,287
1657292739221,-427,-1254,116
1657292739261,-241,-1001,209
1657292739301,-190,-757,287
1657292739341,-166,-652,304
1657292739381,-76,-647,268
1657292739421,-37,-707,228
1657292739461,-70,-834,203
1657292739501,-41,-1010,226
1657292739541,38,-1290,224
1657292739581,32,-1370,201
1657292739621,206,-1359,350
1657292739661,-63,-1156,460
1657292739701,-153,-1187,29
1657292739741,-96,-1039,-269
1657292739781,-136,-750,-43
1657292739821,-173,-628,45
1657292739861,-265,-692,60
1657292739901,-215,-705,128
1657292739941,-161,-909,-103
1657292739981,-112,-962,-40
1657292740021,-141,-1060,54
1657292740061,-118,-1243,137
1657292740101,-125,-1482,144
1657292740141,-344,-1454,312
1657292740181,-481,-1518,207
1657292740221,-437,-1371,116
1657292740261,-232,-1080,316
1657292740301,-187,-778,378
1657292740341,-158,-654,304
1657292740381,-59,-593,241
1657292740421,-25,-684,184
1657292740461,-66,-841,146
1657292740501,-25,-1003,201
1657292740541,2,-1193,273
1657292740581,-42,-1241,318
1657292740621,-2,-1279,310
1657292740661,-178,-1221,298
1657292740701,-224,-1232,286
1657292740741,-275,-1093,158
1657292740781,-200,-849,131
1657292740821,-234,-649,127
1657292740861,-209,-626,95
1657292740901,-153,-716,28
1657292740941,-98,-767,81
1657292740981,-70,-870,134
1657292741021,-142,-985,172
1657292741061,-187,-1120,188
1657292741101,-298,-1314,111
1657292741141,-304,-1441,140
1657292741181,-515,-1359,231
1657292741221,-546,-1384,164
1657292741261,-348,-1208,120
1657292741301,-254,-993,235
1657292741341,-218,-806,310
1657292741381,-126,-683,307
1657292741421,-92,-706,247
1657292741461,-215,-884,152
1657292741501,8,-864,278
1657292741541,-16,-1059,214
1657292741581,6,-1193,174
1657292741621,36,-1199,248
1657292741661,-36,-1252,86
1657292741701,-202,-1105,199
1657292741741,-256,-1105,154
1657292741781,-297,-1082,-32
1657292741821,-277,-833,43
1657292741861,-325,-705,2
1657292741901,-278,-706,4
1657292741941,-213,-750,96
1657292741981,-188,-814,190
1657292742021,-219,-918,182
1657292742061,-222,-1033,135
1657292742101,-315,-1226,92
1657292742141,-303,-1508,76
1657292742181,-550,-1444,274
1657292742221,-794,-1380,365
1657292742261,-523,-1255,204
1657292742301,-296,-1087,200
1657292742341,-198,-874,250
1657292742381,-136,-753,230
1657292742421,-34,-710,187
1657292742461,32,-709,166
1657292742501,36,-786,162
1657292742541,71,-967,221
1657292742581,126,-1200,244
1657292742621,46,-1285,257
1657292742661,-60,-1363,239
1657292742701,-201,-1164,243
1657292742741,-298,-1194,80
1657292742781,-243,-1112,-30
1657292742821,-201,-866,73
1657292742861,-223,-636,113
1657292742901,-205,-637,-14
1657292742941,-214,-729,-18
1657292742981,-170,-792,32
1657292743021,-187,-922,120
1657292743061,-191,-1086,203
1657292743101,-278,-1261,207
1657292743141,-362,-1488,158
1657292743181,-450,-1403,299
1657292743221,-540,-1392,376
1657292743261,-489,-1294,224
1657292743301,-353,-1079,256
1657292743341,-239,-841,271
1657292743381,-175,-730,220
1657292743421,-58,-650,197
1657292743461,42,-636,174
1657292743501,6,-812,153
1657292743541,-12,-1000,234
1657292743581,17,-1127,225
1657292743621,-218,-1304,374
1657292743661,-140,-1421,244
1657292743701,-248,-1214,261
1657292743741,-172,-1167,70
1657292743781,-130,-1043,-107
1657292743821,-150,-741,-25
1657292743861,-212,-579,34
1657292743901,-236,-562,13
1657292743941,-147,-674,52
1657292743981,-121,-809,74
1657292744021,-159,-935,166
1657292744061,-169,-1085,238
1657292744101,-231,-1273,277
1657292744141,-325,-1614,154
1657292744181,-568,-1591,87
1657292744221,-755,-1502,58
1657292744261,-445,-1242,14
1657292744301,-367,-1004,185
1657292744341,-209,-765,201
1657292744381,-281,-745,238
1657292744421,-142,-738,191
1657292744461,-60,-760,148
1657292744501,103,-891,14
1657292744541,-20,-1056,80
1657292744581,151,-1103,207
1657292744621,171,-1126,290
1657292744661,191,-1413,269
1657292744701,-31,-1352,274
1657292744741,-106,-1293,238
1657292744781,-59,-1105,-61
1657292744821,-60,-808,-137
1657292744861,-15,-650,-131
1657292744901,-101,-688,-37
1657292744941,-4,-780,-11
1657292744981,45,-844,75
1657292745021,50,-928,72
1657292745061,12,-1090,65
1657292745101,136,-1285,18
1657292745141,33,-1579,82
1657292745181,-99,-1563,127
1657292745221,-282,-1601,26
1657292745261,-253,-1414,-99
1657292745301,-82,-1181,157
1657292745341,31,-871,205
1657292745381,21,-755,224
1657292745421,132,-719,181
1657292745461,212,-705,123
1657292745501,174,-839,156
1657292745541,229,-990,247
1657292745581,306,-1144,354
1657292745621,256,-1190,431
1657292745661,240,-1243,235
1657292745701,-32,-1135,217
1657292745741,-13,-1142,75
1657292745781,-101,-1187,-137
1657292745821,-164,-975,-52
1657292745861,-195,-731,4
1657292745901,-242,-679,-123
1657292745941,-181,-708,-75
1657292745981,-117,-776,-14
1657292746021,-81,-893,25
1657292746061,-50,-1070,76
1657292746101,-80,-1318,36
1657292746141,-159,-1690,-8
1657292746181,-361,-1610,121
1657292746221,-538,-1435,149
1657292746261,-262,-1278,-25
1657292746301,-173,-1083,41
1657292746341,-96,-903,151
1657292746381,-33,-784,217
1657292746421,26,-732,230
1657292746461,41,-729,158
1657292746501,40,-854,158
1657292746541,95,-997,176
1657292746581,202,-1146,174
1657292746621,234,-1224,202
1657292746661,45,-1293,213
1657292746701,-14,-1216,107
1657292746741,-121,-1182,108
1657292746781,-132,-1190,-9
1657292746821,-233,-1054,-53
1657292746861,-251,-776,30
1657292746901,-239,-652,-9
1657292746941,-261,-660,-31
1657292746981,-251,-833,30
1657292747021,-181,-928,90
1657292747061,-127,-1022,102
1657292747101,-64,-1195,56
1657292747141,-73,-1459,60
1657292747181,-95,-1489,206
1657292747221,-437,-1398,219
1657292747261,-329,-1313,50
1657292747301,-176,-1123,95
1657292747341,-158,-900,171
1657292747381,-147,-743,223
1657292747421,-62,-672,197
1657292747461,21,-656,145
1657292747501,11,-736,135
1657292747541,9,-872,125
1657292747581,75,-1108,165
1657292747621,-115,-1540,9
1657292747661,-36,-1418,94
1657292747701,40,-1268,230
1657292747741,-255,-1121,190
1657292747781,-202,-1095,-73
1657292747821,-159,-959,-127
1657292747861,-184,-709,-27
1657292747901,-205,-641,40
1657292747941,-229,-715,-16
1657292747981,-196,-772,-15
1657292748021,-122,-839,65
1657292748061,-117,-910,78
1657292748101,-81,-1041,80
1657292748141,-173,-1300,40
1657292748181,-281,-1422,48
1657292748221,-374,-1325,191
1657292748261,-499,-1427,133
1657292748301,-496,-1394,-27
1657292748341,-376,-1136,62
1657292748381,-267,-856,171
1657292748421,-199,-729,212
1657292748461,-69,-700,206
1657292748501,79,-719,165
1657292748541,96,-843,178
1657292748581,118,-990,235
1657292748621,198,-1230,224
1657292748661,2,-1346,123
1657292748701,67,-1438,34
1657292748741,-192,-1151,145
1657292748781,-169,-1248,-52
1657292748821,-137,-1185,-60
1657292748861,-276,-859,65
1657292748901,-290,-678,-30
1657292748941,-208,-599,-72
1657292748981,-147,-604,-30
1657292749021,-147,-698,38
1657292749061,-160,-833,109
1657292749101,-112,-1040,127
1657292749141,-92,-1371,71
1657292749181,-105,-1598,188
1657292749221,-217,-1396,396
1657292749261,-301,-1336,173
1657292749301,-343,-1256,-127
1657292749341,-319,-1007,31
1657292749381,-258,-861,148
1657292749421,-250,-717,193
1657292749461,-127,-689,179
1657292749501,-22,-663,214
1657292749541,-17,-793,143
1657292749581,17,-939,138
1657292749621,49,-1237,278
1657292749661,75,-1427,320
1657292749701,130,-1500,300
1657292749741,91,-1165,185
1657292749781,-98,-1078,239
1657292749821,-157,-1063,4
1657292749861,-212,-842,-110
1657292749901,-299,-673,21
1657292749941,-313,-695,14
1657292749981,-293,-742,35
1657292750021,-244,-857,48
1657292750061,-207,-911,56
1657292750101,-121,-992,114
1657292750141,-110,-1150,132
1657292750181,-184,-1278,121
1657292750221,-185,-1330,212
1657292750261,-438,-1346,317
1657292750301,-541,-1498,152
1657292750341,-490,-1346,48
1657292750381,-237,-1130,256
1657292750421,-143,-910,347
1657292750461,-69,-762,347
1657292750501,59,-701,262
1657292750541,87,-670,163
1657292750581,27,-699,161
1657292750621,50,-794,165
1657292750661,-12,-1074,263
1657292750701,-110,-1212,321
1657292750741,-149,-1385,289
1657292750781,-112,-1215,288
1657292750821,-260,-1218,436
1657292750861,-302,-1208,270
1657292750901,-264,-1017,106
1657292750941,-286,-759,142
1657292750981,-298,-656,68
1657292751021,-250,-657,42
1657292751061,-176,-746,81
1657292751101,-111,-792,114
1657292751141,-103,-874,169
1657292751181,-147,-1030,213
1657292751221,-124,-1189,216
1657292751261,-211,-1419,187
1657292751301,-335,-1358,233
1657292751341,-502,-1353,285
1657292751381,-406,-1368,113
1657292751421,-287,-1216,127
1657292751461,-214,-968,275
1657292751501,-225,-801,324
1657292751541,-178,-707,250
1657292751581,-103,-603,237
1657292751621,44,-641,236
1657292751661,142,-855,153
1657292751701,-16,-1166,138
1657292751741,-107,-1400,192
1657292751781,-34,-1511,274
1657292751821,86,-1298,301
1657292751861,-90,-1210,171
1657292751901,76,-1127,-175
1657292751941,73,-886,-42
1657292751981,-112,-696,121
1657292752021,-220,-664,23
1657292752061,-237,-679,19
1657292752101,-234,-721,31
1657292752141,-187,-814,101
1657292752181,-218,-1008,135
1657292752221,-258,-1242,191
1657292752261,-209,-1346,193
1657292752301,-263,-1352,258
1657292752341,-367,-1216,226
1657292752381,-444,-1190,151
1657292752421,-370,-1234,11
1657292752461,-385,-1149,80
1657292752501,-222,-983,372
1657292752541,-137,-811,365
1657292752581,-35,-698,309
1657292752621,28,-654,273
1657292752661,20,-721,212
1657292752701,17,-835,168
1657292752741,121,-1126,148
1657292752781,27,-1310,40
1657292752821,-152,-1442,118
1657292752861,-90,-1301,266
1657292752901,-175,-1247,350
1657292752941,-208,-1186,183
1657292752981,-182,-949,29
1657292753021,-188,-723,91
1657292753061,-182,-659,9
1657292753101,-168,-648,-2
1657292753141,-163,-705,72
1657292753181,-167,-826,119
1657292753221,-144,-978,139
1657292753261,-155,-1146,104
1657292753301,-188,-1235,56
1657292753341,-120,-1346,83
1657292753381,-183,-1239,266
1657292753421,-295,-1275,373
1657292753461,-461,-1282,84
1657292753501,-499,-1095,122
1657292753541,-316,-860,318
1657292753581,-228,-759,272
1657292753621,-117,-754,190
1657292753661,-63,-780,164
1657292753701,-12,-883,177
1657292753741,90,-988,163
1657292753781,5,-1146,142
1657292753821,2,-1257,215
1657292753861,-13,-1329,271
1657292753901,-51,-1288,95
1657292753941,-101,-1213,149
1657292753981,-145,-1078,105
1657292754021,-108,-901,-6
1657292754061,-139,-668,86
1657292754101,-209,-622,36
1657292754141,-253,-716,-15
1657292754181,-285,-827,53
1657292754221,-216,-925,130
1657292754261,-154,-1016,205
1657292754301,-125,-1096,273
1657292754341,-185,-1197,313
1657292754381,-221,-1353,233
1657292754421,-334,-1363,284
1657292754461,-568,-1418,166
1657292754501,-541,-1252,52
1657292754541,-312,-1077,159
1657292754581,-203,-834,231
1657292754621,-164,-737,241
1657292754661,-72,-715,237
1657292754701,-1,-739,190
1657292754741,9,-841,163
1657292754781,-41,-969,215
1657292754821,24,-1185,238
1657292754861,-17,-1274,250
1657292754901,57,-1406,243
1657292754941,-10,-1178,273
1657292754981,-197,-1259,240
1657292755021,-211,-1211,-49
1657292755061,-182,-881,-49
1657292755101,-175,-629,32
1657292755141,-144,-523,-9
1657292755181,-127,-550,10
1657292755221,-109,-699,79
1657292755261,-215,-928,143
1657292755301,-308,-1071,67
1657292755341,-272,-1146,116
1657292755381,-265,-1268,176
1657292755421,-268,-1364,191
1657292755461,-449,-1468,190
1657292755501,-568,-1503,86
1657292755541,-464,-1239,198
1657292755581,-275,-968,323
1657292755621,-229,-809,244
1657292755661,-123,-702,211
1657292755701,-30,-660,164
1657292755741,-13,-737,155
1657292755781,-3,-895,116
1657292755821,-74,-1102,57
1657292755861,91,-1185,164
1657292755901,-85,-1291,233
1657292755941,-54,-1346,123
1657292755981,-136,-1161,294
1657292756021,-259,-1112,280
1657292756061,-201,-1001,28
1657292756101,-196,-721,114
1657292756141,-239,-619,126
1657292756181,-335,-686,57
1657292756221,-374,-854,-4
1657292756261,-399,-888,50
1657292756301,-284,-966,88
1657292756341,-307,-1109,8
1657292756381,-266,-1171,137
1657292756421,-249,-1319,179
1657292756461,-354,-1248,202
1657292756501,-398,-1382,69
1657292756541,-344,-1324,3
1657292756581,-343,-1137,299
1657292756621,-281,-865,419
1657292756661,-242,-749,288
1657292756701,-124,-691,224
1657292756741,-17,-685,176
1657292756781,-15,-732,94
1657292756821,14,-829,122
1657292756861,63,-1086,184
1657292756901,-142,-1333,244
1657292756941,-86,-1530,328
1657292756981,-200,-1256,287
1657292757021,-283,-1209,167
1657292757061,-114,-1165,-142
1657292757101,-150,-932,-120
1657292757141,-212,-705,-14
1657292757181,-179,-594,-82
1657292757221,-118,-586,-2
1657292757261,-93,-708,59
1657292757301,-183,-857,116
1657292757341,-259,-993,117
1657292757381,-181,-1135,147
1657292757421,-275,-1473,19
1657292757461,-409,-1483,148
1657292757501,-598,-1459,306
1657292757541,-490,-1393,175
1657292757581,-370,-1140,207
1657292757621,-275,-875,243
1657292757661,-233,-731,232
1657292757701,-143,-656,204
1657292757741,-86,-695,194
1657292757781,-66,-851,154
1657292757821,-58,-1008,127
1657292757861,37,-1178,196
1657292757901,71,-1262,247
1657292757941,36,-1353,264
1657292757981,12,-1168,152
1657292758021,8,-1110,143
1657292758061,64,-1094,-43
1657292758101,-119,-921,18
1657292758141,-56,-677,30
1657292758181,-178,-674,41
1657292758221,-213,-797,-87
1657292758261,-134,-890,-55
1657292758301,-94,-958,46
1657292758341,-112,-1019,25
1657292758381,-49,-1172,-24
1657292758421,-33,-1380,-51
1657292758461,-45,-1514,93
1657292758501,-211,-1366,296
1657292758541,-391,-1436,139
1657292758581,-344,-1341,-158
1657292758621,-232,-1164,-32
1657292758661,-99,-890,207
1657292758701,1,-703,290
1657292758741,66,-665,272
1657292758781,108,-729,143
1657292758821,10,-955,168
1657292758861,101,-1129,199
1657292758901,174,-1284,203
1657292758941,87,-1308,241
1657292758981,115,-1247,130
1657292759021,-48,-1064,239
1657292759061,-50,-1122,72
1657292759101,-51,-1064,-54
1657292759141,-98,-806,57
1657292759181,-147,-661,95
1657292759221,-138,-663,-22
1657292759261,-136,-727,-5
1657292759301,-116,-853,97
1657292759341,-151,-950,50
1657292759381,-106,-1128,41
1657292759421,-186,-1444,23
1657292759461,-328,-1749,62
1657292759501,-576,-1491,323
1657292759541,-557,-1306,305
1657292759581,-300,-1126,78
1657292759621,-208,-996,57
1657292759661,-134,-823,140
1657292759701,-91,-758,222
1657292759741,-1,-748,231
1657292759781,25,-793,218
1657292759821,34,-883,232
1657292759861,83,-1088,235
1657292759901,103,-1251,224
1657292759941,43,-1223,301
1657292759981,15,-1209,69
1657292760021,-108,-1171,19
1657292760061,-79,-1167,92
1657292760101,-192,-1101,61
1657292760141,-185,-861,43
1657292760181,-200,-710,22
1657292760221,-200,-701,-84
1657292760261,-166,-729,-59
1657292760301,-175,-843,-18
1657292760341,-172,-986,41
1657292760381,-103,-1110,156
1657292760421,-181,-1262,246
1657292760461,-253,-1550,254
1657292760501,-324,-1433,388
1657292760541,-581,-1284,335
1657292760581,-411,-1172,80
1657292760621,-281,-1067,-7
1657292760661,-157,-862,144
1657292760701,-91,-739,249
1657292760741,-22,-695,269
1657292760781,-38,-728,210
1657292760821,-2,-756,237
1657292760861,-15,-934,175
1657292760901,-11,-1137,70
1657292760941,34,-1270,86
1657292760981,-86,-1352,190
1657292761021,-87,-1255,165
1657292761061,-190,-1238,180
1657292761101,-226,-1238,70
1657292761141,-284,-1101,35
1657292761181,-178,-795,107
1657292761221,-172,-615,98
1657292761261,-137,-591,45
1657292761301,-84,-644,58
1657292761341,-109,-774,119
1657292761381,-157,-892,125
1657292761421,-184,-1126,114
1657292761461,-257,-1377,95
1657292761501,-274,-1510,235
1657292761541,-540,-1394,329
1657292761581,-485,-1348,252
1657292761621,-320,-1126,176
1657292761661,-240,-911,181
1657292761701,-180,-721,189
1657292761741,-119,-656,160
1657292761781,-75,-671,109
1657292761821,-65,-754,107
1657292761861,-62,-989,89
1657292761901,-75,-1141,61
1657292761941,-8,-1316,179
1657292761981,-54,-1362,221
1657292762021,55,-1283,219
1657292762061,-97,-1108,248
1657292762101,-140,-1088,278
1657292762141,-140,-1020,0
1657292762181,-206,-753,30
1657292762221,-217,-616,112
1657292762261,-265,-634,4
1657292762301,-236,-760,-25
1657292762341,-171,-864,72
1657292762381,-193,-1004,124
1657292762421,-139,-1146,78
1657292762461,-116,-1292,122
1657292762501,-158,-1501,201
1657292762541,-371,-1343,334
1657292762581,-522,-1316,239
1657292762621,-324,-1150,67
1657292762661,-287,-1028,45
1657292762701,-222,-832,151
1657292762741,-147,-692,208
1657292762781,-67,-676,239
1657292762821,-66,-743,160
1657292762861,-31,-857,119
1657292762901,-9,-998,104
1657292762941,53,-1219,157
1657292762981,2,-1341,264
1657292763021,62,-1391,270
1657292763061,-60,-1275,410
1657292763101,-181,-1275,218
1657292763141,-98,-1028,-29
1657292763181,-151,-695,23
1657292763221,-184,-559,-40
1657292763261,-199,-578,-54
1657292763301,-155,-709,-42
1657292763341,-140,-804,84
1657292763381,-130,-894,192
1657292763421,-83,-1061,168
1657292763461,-147,-1279,122
1657292763501,-274,-1474,110
1657292763541,-322,-1382,273
1657292763581,-567,-1416,224
1657292763621,-527,-1337,17
1657292763661,-370,-1107,98
1657292763701,-231,-869,180
1657292763741,-176,-771,160
1657292763781,-152,-709,138
1657292763821,-110,-736,167
1657292763861,-32,-838,172
1657292763901,2,-976,177
1657292763941,60,-1116,241
1657292763981,89,-1218,262
1657292764021,30,-1331,239
1657292764061,-73,-1160,205
1657292764101,-152,-1169,163
1657292764141,-99,-1154,35
1657292764181,-265,-987,7
1657292764221,-254,-734,49
1657292764261,-266,-645,-23
1657292764301,-290,-680,-60
1657292764341,-269,-790,24
1657292764381,-273,-868,146
1657292764421,-246,-1005,180
1657292764461,-203,-1242,130
1657292764501,-238,-1354,195
1657292764541,-160,-1439,276
1657292764581,-487,-1331,311
1657292764621,-566,-1322,149
1657292764661,-394,-1146,16
1657292764701,-284,-945,112
1657292764741,-198,-742,211
1657292764781,-111,-683,276
1657292764821,-44,-713,215
1657292764861,-42,-771,187
1657292764901,-46,-948,179
1657292764941,-58,-1115,164
1657292764981,-15,-1300,176
1657292765021,-64,-1353,231
1657292765061,-21,-1249,210
1657292765101,-143,-1097,266
1657292765141,-105,-1108,153
1657292765181,-150,-1006,16
1657292765221,-196,-730,4
1657292765261,-237,-612,-58
1657292765301,-166,-593,-75
1657292765341,-195,-711,-30
1657292765381,-192,-879,62
1657292765421,-214,-987,158
1657292765461,-196,-1145,200
1657292765501,-220,-1338,181
1657292765541,-293,-1472,162
1657292765581,-415,-1261,308
1657292765621,-447,-1289,213
1657292765661,-378,-1226,61
1657292765701,-355,-1054,106
1657292765741,-273,-840,180
1657292765781,-188,-739,221
1657292765821,-107,-690,222
1657292765861,-35,-746,182
1657292765901,-3,-861,166
1657292765941,14,-1015,168
1657292765981,93,-1253,222
1657292766021,-15,-1418,266
1657292766061,100,-1403,253
1657292766101,-79,-1218,380
1657292766141,-216,-1214,101
1657292766181,-123,-968,-141
1657292766221,-133,-638,-63
1657292766261,-200,-552,-72
1657292766301,-207,-600,-78
1657292766341,-181,-800,-3
1657292766381,-176,-934,66
1657292766421,-168,-996,151
1657292766461,-187,-1093,159
1657292766501,-218,-1189,133
1657292766541,-205,-1409,135
1657292766581,-406,-1336,272
1657292766621,-532,-1375,226
1657292766661,-455,-1303,85
1657292766701,-399,-1158,126
1657292766741,-275,-890,239
1657292766781,-163,-767,280
1657292766821,-37,-729,200
1657292766861,0,-758,170
1657292766901,8,-829,181
1657292766941,85,-969,166
1657292766981,133,-1188,95
1657292767021,17,-1229,124
1657292767061,94,-1342,182
1657292767101,-97,-1150,332
1657292767141,-203,-1209,255
1657292767181,-167,-1150,50
1657292767221,-265,-909,96
1657292767261,-238,-720,99
1657292767301,-230,-685,42
1657292767341,-186,-725,47
1657292767381,-121,-784,130
1657292767421,-132,-881,133
1657292767461,-147,-986,145
1657292767501,-108,-1162,104
1657292767541,-186,-1277,165
1657292767581,-144,-1383,269
1657292767621,-521,-1396,209
1657292767661,-623,-1444,54
1657292767701,-448,-1291,-61
1657292767741,-254,-1074,154
1657292767781,-140,-882,324
1657292767821,-154,-810,312
1657292767861,-85,-793,278
1657292767901,-2,-880,216
1657292767941,37,-941,129
1657292767981,89,-1022,180
1657292768021,171,-1120,213
1657292768061,138,-1194,223
1657292768101,146,-1222,192
1657292768141,-64,-1158,310
1657292768181,-92,-1178,161
1657292768221,-118,-1095,-28
1657292768261,-198,-794,50
1657292768301,-215,-637,74
1657292768341,-230,-666,38
1657292768381,-230,-776,25
1657292768421,-203,-884,40
1657292768461,-220,-1030,117
1657292768501,-201,-1172,162
1657292768541,-253,-1419,188
1657292768581,-362,-1564,144
1657292768621,-396,-1331,357
1657292768661,-483,-1370,246
1657292768701,-381,-1314,13
1657292768741,-306,-1164,196
1657292768781,-121,-926,369
1657292768821,-19,-752,428
1657292768861,27,-716,336
1657292768901,74,-673,284
1657292768941,48,-766,265
1657292768981,29,-913,192
1657292769021,76,-1133,198
1657292769061,-7,-1228,118
1657292769101,-57,-1415,84
1657292769141,-53,-1229,123
1657292769181,-124,-1211,240
1657292769221,-167,-1211,148
1657292769261,-274,-1017,91
1657292769301,-259,-730,120
1657292769341,-223,-636,59
1657292769381,-181,-686,61
1657292769421,-200,-772,13
1657292769461,-248,-866,85
1657292769501,-213,-988,163
1657292769541,-101,-1171,196
1657292769581,-242,-1419,181
1657292769621,-324,-1477,265
1657292769661,-505,-1251,364
1657292769701,-532,-1238,239
1657292769741,-406,-1131,20
1657292769781,-342,-967,46
1657292769821,-225,-806,209
1657292769861,-166,-745,273
1657292769901,-70,-708,266
1657292769941,-94,-808,273
1657292769981,-102,-984,227
1657292770021,-68,-1160,234
1657292770061,-31,-1263,210
1657292770101,-5,-1235,212
1657292770141,55,-1331,150
1657292770181,22,-1082,97
1657292770221,-80,-1101,195
1657292770261,-59,-1051,95
1657292770301,-180,-867,131
1657292770341,-177,-636,225
1657292770381,-222,-648,5
1657292770421,-262,-786,-142
1657292770461,-258,-829,-79
1657292770501,-245,-909,86
1657292770541,-276,-1055,106
1657292770581,-247,-1264,123
1657292770621,-341,-1534,-70
1657292770661,-310,-1446,82
1657292770701,-384,-1313,461
1657292770741,-435,-1219,355
1657292770781,-299,-1104,160
1657292770821,-232,-948,180
1657292770861,-182,-771,272
1657292770901,-64,-716,301
1657292770941,-13,-720,239
1657292770981,-12,-772,216
1657292771021,12,-904,211
1657292771061,2,-1043,187
1657292771101,31,-1283,192
1657292771141,-78,-1265,256
1657292771181,-9,-1276,203
1657292771221,-140,-1137,270
1657292771261,-209,-1158,187
1657292771301,-174,-1061,38
1657292771341,-208,-786,88
1657292771381,-204,-615,76
1657292771421,-226,-615,6
1657292771461,-220,-716,43
1657292771501,-227,-837,128
1657292771541,-247,-899,179
1657292771581,-191,-1072,191
1657292771621,-118,-1285,222
1657292771661,-267,-1495,134
1657292771701,-372,-1400,260
1657292771741,-510,-1384,359
1657292771781,-490,-1305,67
1657292771821,-376,-1085,196
1657292771861,-229,-857,285
1657292771901,-127,-715,278
1657292771941,-45,-646,254
1657292771981,0,-666,185
1657292772021,-14,-768,152
1657292772061,-28,-961,157
1657292772101,-34,-1153,182
1657292772141,11,-1303,248
1657292772181,-40,-1415,266
1657292772221,-22,-1216,277
1657292772261,-225,-1082,306
1657292772301,-183,-1127,22
1657292772341,-213,-978,-53
1657292772381,-227,-727,94
1657292772421,-229,-625,60
1657292772461,-282,-679,-10
1657292772501,-245,-781,34
1657292772541,-173,-834,149
1657292772581,-155,-940,176
1657292772621,-127,-1089,171
1657292772661,-194,-1350,136
1657292772701,-270,-1553,161
1657292772741,-535,-1449,323
1657292772781,-631,-1355,182
1657292772821,-383,-1136,90
1657292772861,-261,-955,149
1657292772901,-180,-760,195
1657292772941,-135,-687,202
1657292772981,-54,-709,181
1657292773021,-23,-757,126
1657292773061,-27,-928,144
1657292773101,44,-1094,201
1657292773141,96,-1288,232
1657292773181,6,-1324,290
1657292773221,28,-1236,265
1657292773261,-124,-1076,302
1657292773301,-146,-1124,142
1657292773341,-256,-1064,-69
1657292773381,-327,-815,-80
1657292773421,-299,-667,-23
1657292773461,-264,-647,-56
1657292773501,-192,-723,17
1657292773541,-184,-846,166
1657292773581,-124,-999,181
1657292773621,-184,-1160,52
1657292773661,-237,-1277,47
1657292773701,-146,-1434,152
1657292773741,-393,-1350,268
1657292773781,-519,-1320,195
1657292773821,-384,-1191,33
1657292773861,-304,-1022,84
1657292773901,-255,-803,195
1657292773941,-180,-679,232
1657292773981,-75,-653,175
1657292774021,-84,-778,130
1657292774061,-35,-939,110
1657292774101,34,-1055,123
1657292774141,124,-1287,132
1657292774181,-55,-1391,163
1657292774221,40,-1329,248
1657292774261,-129,-1117,402
1657292774301,-140,-1105,199
1657292774341,-110,-1002,-63
1657292774381,-187,-751,26
1657292774421,-209,-613,34
1657292774461,-231,-635,-36
1657292774501,-195,-741,-34
1657292774541,-142,-835,28
1657292774581,-164,-957,78
1657292774621,-104,-1104,102
1657292774661,-98,-1286,149
1657292774701,-173,-1572,172
1657292774741,-388,-1419,258
1657292774781,-546,-1424,131
1657292774821,-430,-1285,11
1657292774861,-307,-1056,153
1657292774901,-179,-827,273
1657292774941,-110,-721,225
1657292774981,-56,-690,177
1657292775021,-9,-765,163
1657292775061,-15,-885,144
1657292775101,11,-1005,152
1657292775141,124,-1212,208
1657292775181,66,-1279,262
1657292775221,80,-1330,194
1657292775261,-51,-1094,345
1657292775301,-183,-1104,261
1657292775341,-238,-1117,-50
1657292775381,-324,-882,-72
1657292775421,-297,-716,6
1657292775461,-250,-668,-13
1657292775501,-198,-722,23
1657292775541,-102,-791,77
1657292775581,-72,-862,141
1657292775621,-145,-980,151
1657292775661,-140,-1220,135
1657292775701,-192,-1432,126
1657292775741,-253,-1424,316
1657292775781,-472,-1420,308
1657292775821,-564,-1346,175
1657292775861,-422,-1122,156
1657292775901,-355,-936,114
1657292775941,-177,-784,139
1657292775981,-75,-698,164
1657292776021,-44,-714,135
1657292776061,-90,-801,144
1657292776101,-73,-915,201
1657292776141,8,-1092,222
1657292776181,18,-1271,202
1657292776221,6,-1355,235
1657292776261,6,-1345,170
1657292776301,-251,-1174,181
1657292776341,-284,-1126,75
1657292776381,-240,-1019,-88
1657292776421,-180,-752,36
1657292776461,-145,-582,68
1657292776501,-169,-612,0
1657292776541,-182,-723,42
1657292776581,-214,-850,172
1657292776621,-209,-912,201
1657292776661,-136,-1061,182
1657292776701,-145,-1289,115
1657292776741,-281,-1520,95
1657292776781,-414,-1436,175
1657292776821,-572,-1430,-8
1657292776861,-491,-1331,-140
1657292776901,-335,-1098,-27
1657292776941,-257,-869,148
1657292776981,-211,-757,197
1657292777021,-142,-730,172
1657292777061,-77,-783,177
1657292777101,-64,-878,157
1657292777141,-14,-964,171
1657292777181,80,-1082,218
1657292777221,171,-1133,234
1657292777261,31,-1238,250
1657292777301,-66,-1195,111
1657292777341,-195,-1116,153
1657292777381,-180,-1127,36
1657292777421,-205,-1050,-6
1657292777461,-241,-845,97
1657292777501,-266,-715,105
1657292777541,-254,-717,31
1657292777581,-216,-777,37
1657292777621,-155,-832,45
1657292777661,-147,-950,81
1657292777701,-55,-1096,100
1657292777741,-95,-1359,121
1657292777781,-218,-1604,174
1657292777821,-447,-1428,308
1657292777861,-528,-1398,163
1657292777901,-344,-1210,33
1657292777941,-286,-1002,41
1657292777981,-184,-794,171
1657292778021,-138,-679,220
1657292778061,-79,-661,200
1657292778101,-38,-743,181
1657292778141,-79,-900,188
1657292778181,12,-1040,209
1657292778221,66,-1278,219
1657292778261,-4,-1292,232
1657292778301,108,-1387,246
1657292778341,-112,-1138,302
1657292778381,-231,-1088,251
1657292778421,-61,-1050,-18
1657292778461,-174,-856,-50
1657292778501,-222,-685,-25
1657292778541,-214,-676,-44
1657292778581,-187,-723,-44
1657292778621,-133,-785,39
1657292778661,-114,-860,115
1657292778701,-91,-1021,84
1657292778741,-5,-1259,149
1657292778781,-201,-1469,194
1657292778821,-246,-1457,317
1657292778861,-493,-1413,306
1657292778901,-593,-1296,47
1657292778941,-404,-1102,35
1657292778981,-253,-869,133
1657292779021,-176,-712,153
1657292779061,-116,-682,177
1657292779101,-72,-713,214
1657292779141,-64,-791,227
1657292779181,31,-934,227
1657292779221,39,-1141,223
1657292779261,95,-1353,264
1657292779301,109,-1437,251
1657292779341,138,-1263,249
1657292779381,31,-1111,270
1657292779421,-26,-1061,-24
1657292779461,-129,-920,-92
1657292779501,-205,-734,7
1657292779541,-315,-725,-24
1657292779581,-280,-760,0
1657292779621,-257,-885,9
1657292779661,-169,-922,89
1657292779701,-76,-971,130
1657292779741,-27,-1103,108
1657292779781,-102,-1198,114
1657292779821,-63,-1365,181
1657292779861,-293,-1476,266
1657292779901,-557,-1485,177
1657292779941,-542,-1297,115
1657292779981,-272,-1084,210
1657292780021,-137,-848,240
1657292780061,-53,-702,216
1657292780101,21,-622,177
1657292780141,58,-658,102
1657292780181,-10,-801,133
1657292780221,20,-976,199
1657292780261,72,-1323,238
1657292780301,-81,-1398,207
1657292780341,55,-1455,246
1657292780381,-53,-1157,340
1657292780421,-165,-1164,191
1657292780461,-149,-1103,-77
1657292780501,-167,-837,-1
1657292780541,-146,-631,87
1657292780581,-150,-634,-27
1657292780621,-134,-707,-42
1657292780661,-116,-751,98
1657292780701,-38,-808,167
1657292780741,-38,-924,150
1657292780781,-63,-1209,100
1657292780821,-248,-1578,120
1657292780861,-376,-1678,244
1657292780901,-642,-1613,205
1657292780941,-440,-1481,-63
1657292780981,-195,-1247,2
1657292781021,-93,-994,183
1657292781061,-22,-777,194
1657292781101,-22,-687,193
1657292781141,18,-677,161
1657292781181,54,-753,150
1657292781221,29,-890,156
1657292781261,69,-1076,253
1657292781301,141,-1203,319
1657292781341,162,-1307,324
1657292781381,123,-1247,217
1657292781421,-188,-1120,205
1657292781461,-304,-1209,-132
1657292781501,-252,-1102,-218
1657292781541,-202,-820,39
1657292781581,-227,-670,62
1657292781621,-250,-661,25
1657292781661,-237,-747,49
1657292781701,-204,-825,107
1657292781741,-246,-903,140
1657292781781,-169,-1168,212
1657292781821,-201,-1379,277
1657292781861,-358,-1588,215
1657292781901,-458,-1438,268
1657292781941,-410,-1356,158
1657292781981,-267,-1256,53
1657292782021,-290,-1126,114
1657292782061,-166,-913,223
1657292782101,-129,-759,221
1657292782141,-35,-692,229
1657292782181,45,-662,194
1657292782221,16,-700,174
1657292782261,3,-799,186
1657292782301,0,-1010,210
1657292782341,63,-1210,189
1657292782381,-29,-1351,191
1657292782421,-153,-1317,44
1657292782461,-261,-1198,152
1657292782501,-189,-1187,119
1657292782541,-276,-1151,66
1657292782581,-272,-910,69
1657292782621,-273,-735,36
1657292782661,-265,-692,-23
1657292782701,-216,-723,-18
1657292782741,-116,-767,79
1657292782781,-127,-822,125
1657292782821,-168,-975,161
1657292782861,-88,-1148,158
1657292782901,-199,-1391,81
1657292782941,-204,-1447,201
1657292782981,-494,-1319,278
1657292783021,-552,-1315,97
1657292783061,-373,-1163,19
1657292783101,-281,-990,58
1657292783141,-194,-848,152
1657292783181,-104,-732,158
1657292783221,-89,-729,154
1657292783261,-112,-795,156
1657292783301,-124,-915,176
1657292783341,-35,-1030,215
1657292783381,62,-1180,247
1657292783421,-6,-1195,273
1657292783461,-43,-1290,245
1657292783501,-141,-1161,230
1657292783541,-81,-1071,239
1657292783581,-148,-1058,168
1657292783621,-184,-931,104
1657292783661,-201,-732,82
1657292783701,-233,-652,1
1657292783741,-231,-654,28
1657292783781,-141,-762,99
1657292783821,-126,-879,132
1657292783861,-190,-1034,126
1657292783901,-129,-1236,156
1657292783941,-208,-1486,186
1657292783981,-344,-1587,204
1657292784021,-615,-1422,202
1657292784061,-534,-1322,113
1657292784101,-352,-1131,133
1657292784141,-212,-918,214
1657292784181,-126,-728,311
1657292784221,-59,-668,271
1657292784261,-7,-666,191
1657292784301,11,-768,182
1657292784341,10,-953,171
1657292784381,98,-1179,194
1657292784421,61,-1346,208
1657292784461,30,-1371,245
1657292784501,143,-1246,211
1657292784541,-52,-1106,327
1657292784581,-81,-1111,230
1657292784621,-146,-1082,67
1657292784661,-215,-819,68
1657292784701,-193,-660,63
1657292784741,-250,-662,41
1657292784781,-269,-736,84
1657292784821,-206,-831,133
1657292784861,-217,-985,93
1657292784901,-146,-1141,120
1657292784941,-118,-1261,205
1657292784981,-181,-1408,187
1657292785021,-231,-1354,281
1657292785061,-326,-1332,251
1657292785101,-360,-1333,35
1657292785141,-340,-1144,122
1657292785181,-219,-949,200
1657292785221,-127,-772,247
1657292785261,-85,-695,221
1657292785301,-12,-726,155
1657292785341,-3,-959,46
1657292785381,44,-1043,101
1657292785421,170,-1141,303
1657292785461,270,-1141,403
1657292785501,255,-1240,434
1657292785541,121,-1155,337
1657292785581,-170,-1127,260
1657292785621,-305,-1214,-88
1657292785661,-257,-1058,-137
1657292785701,-247,-805,90
1657292785741,-248,-717,56
1657292785781,-234,-725,15
1657292785821,-134,-786,52
1657292785861,-99,-870,117
1657292785901,-117,-945,131
1657292785941,-79,-1099,143
1657292785981,-120,-1314,147
1657292786021,-206,-1445,230
1657292786061,-377,-1496,356
1657292786101,-491,-1531,175
1657292786141,-535,-1268,37
1657292786181,-310,-1040,141
1657292786221,-150,-833,241
1657292786261,-43,-703,240
1657292786301,72,-639,230
1657292786341,105,-664,206
1657292786381,36,-854,196
1657292786421,-35,-1089,220
1657292786461,64,-1265,376
1657292786501,22,-1360,435
1657292786541,33,-1311,265
1657292786581,-129,-1144,330
1657292786621,-188,-1195,46
1657292786661,-205,-1078,-217
1657292786701,-268,-819,-83
1657292786741,-257,-678,-23
1657292786781,-224,-694,-24
1657292786821,-152,-756,-16
1657292786861,-102,-803,101
1657292786901,-93,-836,146
1657292786941,-47,-952,140
1657292786981,-17,-1186,117
1657292787021,-106,-1554,179
1657292787061,-351,-1590,320
1657292787101,-733,-1586,168
1657292787141,-551,-1371,-26
1657292787181,-297,-1141,56
1657292787221,-198,-925,122
1657292787261,-134,-815,214
1657292787301,-18,-697,223
1657292787341,11,-674,247
1657292787381,15,-766,241
1657292787421,-7,-915,217
1657292787461,55,-1071,224
1657292787501,96,-1237,288
1657292787541,68,-1328,307
1657292787581,74,-1270,240
1657292787621,-194,-1104,205
1657292787661,-261,-1152,-13
1657292787701,-220,-1105,-170
1657292787741,-228,-902,25
1657292787781,-296,-737,67
1657292787821,-309,-707,-13
1657292787861,-239,-790,-6
1657292787901,-137,-858,55
1657292787941,-148,-905,120
1657292787981,-88,-999,170
1657292788021,-16,-1230,198
1657292788061,-105,-1361,186
1657292788101,-175,-1350,271
1657292788141,-371,-1357,291
1657292788181,-447,-1425,72
1657292788221,-517,-1260,19
1657292788261,-305,-1021,192
1657292788301,-172,-803,288
1657292788341,-91,-709,250
1657292788381,-18,-661,207
1657292788421,44,-670,192
1657292788461,24,-848,173
1657292788501,28,-984,169
1657292788541,29,-1150,260
1657292788581,96,-1229,314
1657292788621,46,-1436,202
1657292788661,-99,-1308,236
1657292788701,-195,-1234,267
1657292788741,-254,-1191,-22
1657292788781,-188,-1026,-47
1657292788821,-194,-707,48
1657292788861,-212,-589,22
1657292788901,-227,-649,-18
1657292788941,-219,-758,-9
1657292788981,-193,-839,68
1657292789021,-163,-895,75
1657292789061,-108,-1053,-13
1657292789101,-145,-1222,-66
1657292789141,-242,-1425,-73
1657292789181,-385,-1394,8
1657292789221,-655,-1537,-179
1657292789261,-660,-1431,-352
1657292789301,-437,-1188,-107
1657292789341,-270,-936,73
1657292789381,-190,-760,112
1657292789421,-91,-679,131
1657292789461,26,-650,93
1657292789501,55,-669,-8
1657292789541,38,-780,-103
1657292789581,72,-1079,69
1657292789621,-104,-1429,88
1657292789661,-230,-1678,122
1657292789701,-163,-1401,251
1657292789741,-230,-1251,-10
1657292789781,12,-1113,-442
1657292789821,201,-805,-519
1657292789861,-4,-757,7
1657292789901,-189,-690,224
1657292789941,-260,-735,70
1657292789981,-248,-811,38
1657292790021,-148,-882,99
1657292790061,-69,-908,117
1657292790101,4,-1030,152
1657292790141,-79,-1337,130
1657292790181,-291,-1617,78
1657292790221,-584,-1523,260
1657292790261,-655,-1511,210
1657292790301,-455,-1288,-24
1657292790341,-279,-1089,-21
1657292790381,-87,-838,67
1657292790421,-39,-730,193
1657292790461,-51,-742,236
1657292790501,-9,-782,147
1657292790541,15,-887,159
1657292790581,73,-991,165
1657292790621,178,-1191,219
1657292790661,115,-1266,258
1657292790701,198,-1377,178
1657292790741,-25,-1206,323
1657292790781,-168,-1261,176
1657292790821,-121,-1159,-95
1657292790861,-184,-846,-1
1657292790901,-220,-668,19
1657292790941,-226,-625,-41
1657292790981,-221,-726,-36
1657292791021,-168,-818,30
1657292791061,-172,-891,104
1657292791101,-131,-1016,92
1657292791141,-72,-1154,115
1657292791181,-109,-1337,154
1657292791221,-193,-1429,263
1657292791261,-444,-1439,201
1657292791301,-597,-1481,-53
1657292791341,-489,-1268,-156
1657292791381,-290,-1112,79
1657292791421,-120,-926,251
1657292791461,-33,-799,275
1657292791501,-7,-758,230
1657292791541,20,-786,181
1657292791581,14,-854,170
1657292791621,64,-971,223
1657292791661,205,-1180,221
1657292791701,144,-1235,232
1657292791741,75,-1344,182
1657292791781,-86,-1210,205
1657292791821,-242,-1178,160
1657292791861,-278,-1135,-57
1657292791901,-336,-919,-175
1657292791941,-134,-593,59
1657292791981,-199,-544,115
1657292792021,-245,-696,21
1657292792061,-221,-872,24
1657292792101,-255,-972,124
1657292792141,-212,-1064,142
1657292792181,-108,-1227,106
1657292792221,-232,-1408,49
1657292792261,-368,-1436,98
1657292792301,-484,-1354,216
1657292792341,-434,-1378,47
1657292792381,-399,-1231,-61
1657292792421,-300,-1021,120
1657292792461,-168,-810,253
1657292792501,-86,-722,261
1657292792541,-9,-675,218
1657292792581,35,-731,169
1657292792621,-18,-903,102
1657292792661,0,-1153,111
1657292792701,9,-1248,285
1657292792741,-30,-1301,400
1657292792781,63,-1331,317
1657292792821,-174,-1160,254
1657292792861,-287,-1223,-11
1657292792901,-179,-1037,-208
1657292792941,-147,-715,-9
1657292792981,-109,-533,-33
1657292793021,-120,-576,-49
1657292793061,-97,-660,7
1657292793101,-82,-773,97
1657292793141,-114,-925,161
1657292793181,-121,-1160,220
1657292793221,-300,-1474,129
1657292793261,-411,-1661,105
1657292793301,-575,-1590,228
1657292793341,-676,-1541,-38
1657292793381,-480,-1295,-65
1657292793421,-282,-1051,119
1657292793461,-179,-791,276
1657292793501,-103,-652,318
1657292793541,-21,-625,271
1657292793581,42,-701,182
1657292793621,-30,-895,145
1657292793661,-29,-1096,183
1657292793701,53,-1203,270
1657292793741,37,-1265,359
1657292793781,103,-1397,250
1657292793821,-93,-1119,287
1657292793861,-232,-1177,77
1657292793901,-131,-1054,-91
1657292793941,-176,-826,-49
1657292793981,-226,-673,-29
1657292794021,-224,-664,-62
1657292794061,-264,-752,-14
1657292794101,-214,-830,32
1657292794141,-172,-947,49
1657292794181,-179,-1042,38
1657292794221,-147,-1266,80
1657292794261,-231,-1469,106
1657292794301,-361,-1508,168
1657292794341,-508,-1430,212
1657292794381,-441,-1278,98
1657292794421,-370,-1108,80
1657292794461,-213,-920,164
1657292794501,-142,-746,221
1657292794541,-81,-681,208
1657292794581,-26,-702,180
1657292794621,-27,-805,189
1657292794661,-19,-990,195
1657292794701,67,-1142,247
1657292794741,84,-1263,265
1657292794781,-9,-1430,185
1657292794821,7,-1245,169
1657292794861,-152,-1112,287
1657292794901,-155,-1108,43
1657292794941,-144,-935,-82
1657292794981,-211,-725,75
1657292795021,-239,-665,3
1657292795061,-261,-722,-47
1657292795101,-218,-784,38
1657292795141,-165,-894,135
1657292795181,-128,-1001,73
1657292795221,-48,-1208,71
1657292795261,-176,-1427,119
1657292795301,-233,-1469,235
1657292795341,-480,-1267,315
1657292795381,-488,-1271,140
1657292795421,-396,-1206,-11
1657292795461,-322,-1069,86
1657292795501,-182,-867,246
1657292795541,-53,-711,276
1657292795581,49,-636,211
1657292795621,42,-672,173
1657292795661,13,-827,135
1657292795701,7,-1025,139
1657292795741,91,-1285,149
1657292795781,-68,-1446,189
1657292795821,3,-1293,235
1657292795861,-105,-1155,518
1657292795901,-265,-1248,229
1657292795941,-341,-1089,-75
1657292795981,-302,-813,-47
1657292796021,-247,-667,-47
1657292796061,-177,-659,6
1657292796101,-148,-703,62
1657292796141,-151,-833,71
1657292796181,-146,-905,51
1657292796221,-92,-954,128
1657292796261,-112,-1099,84
1657292796301,-102,-1347,-9
1657292796341,-74,-1443,163
1657292796381,-400,-1595,224
1657292796421,-606,-1449,177
1657292796461,-420,-1165,278
1657292796501,-255,-901,215
1657292796541,-312,-796,66
1657292796581,-35,-597,149
1657292796621,1,-589,131
1657292796661,-47,-727,97
1657292796701,-56,-910,115
1657292796741,4,-1058,214
1657292796781,-35,-1271,214
1657292796821,-85,-1397,196
1657292796861,-1,-1333,161
1657292796901,-231,-1175,281
1657292796941,-295,-1165,169
1657292796981,-177,-1041,-76
1657292797021,-157,-759,26
1657292797061,-208,-632,82
1657292797101,-247,-669,-7
1657292797141,-247,-750,17
1657292797181,-205,-847,98
1657292797221,-219,-930,95
1657292797261,-161,-1027,78
1657292797301,-120,-1208,88
1657292797341,-196,-1319,116
1657292797381,-153,-1374,256
1657292797421,-455,-1386,189
1657292797461,-571,-1403,-8
1657292797501,-447,-1240,-44
1657292797541,-281,-1054,136
1657292797581,-178,-836,252
1657292797621,-110,-714,280
1657292797661,-34,-686,201
1657292797701,21,-731,177
1657292797741,39,-831,172
1657292797781,30,-1005,208
1657292797821,103,-1217,196
1657292797861,62,-1274,265
1657292797901,77,-1373,211
1657292797941,-28,-1203,322
1657292797981,-191,-1175,217
1657292798021,-246,-1151,-27
1657292798061,-222,-909,-52
1657292798101,-184,-698,107
1657292798141,-255,-690,33
1657292798181,-280,-728,14
1657292798221,-269,-799,61
1657292798261,-265,-941,-16
1657292798301,-221,-1028,60
1657292798341,-130,-1125,228
1657292798381,-137,-1301,289
1657292798421,-269,-1421,191
1657292798461,-323,-1333,300
1657292798501,-403,-1416,206
1657292798541,-477,-1307,66
1657292798581,-359,-1117,117
1657292798621,-197,-888,212
1657292798661,-95,-728,249
1657292798701,-39,-641,217
1657292798741,-17,-657,183
1657292798781,20,-776,177
1657292798821,48,-918,189
1657292798861,11,-1131,221
1657292798901,11,-1214,243
1657292798941,-6,-1383,242
1657292798981,-171,-1276,160
1657292799021,-254,-1241,153
1657292799061,-181,-1182,-33
1657292799101,-192,-989,-27
1657292799141,-157,-739,86
1657292799181,-201,-642,63
1657292799221,-228,-660,-4
1657292799261,-207,-748,41
1657292799301,-179,-883,104
1657292799341,-179,-950,133
1657292799381,-146,-1083,168
1657292799421,-121,-1205,181
1657292799461,-208,-1280,183
1657292799501,-238,-1251,202
1657292799541,-353,-1256,256
1657292799581,-453,-1488,106
1657292799621,-682,-1439,-57
1657292799661,-519,-1189,148
1657292799701,-204,-920,341
1657292799741,-46,-758,317
1657292799781,25,-699,210
1657292799821,40,-697,162
1657292799861,31,-782,179
1657292799901,70,-945,252
1657292799941,43,-1133,254
1657292799981,3,-1232,249
1657292800021,-36,-1330,187
1657292800061,-76,-1252,158
1657292800101,-155,-1255,94
1657292800141,-254,-1176,58
1657292800181,-178,-988,99
1657292800221,-156,-741,152
1657292800261,-219,-665,82
1657292800301,-241,-681,61
1657292800341,-254,-761,77
1657292800381,-220,-834,173
1657292800421,-199,-952,191
1657292800461,-209,-1061,122
1657292800501,-138,-1193,143
1657292800541,-197,-1297,82
1657292800581,-169,-1348,153
1657292800621,-376,-1370,192
1657292800661,-599,-1481,26
1657292800701,-550,-1314,11
1657292800741,-298,-1106,194
1657292800781,-135,-866,342
1657292800821,-67,-731,295
1657292800861,-30,-683,222
1657292800901,4,-689,217
1657292800941,34,-759,235
1657292800981,20,-919,274
1657292801021,36,-1191,239
1657292801061,-2,-1287,225
1657292801101,19,-1462,194
1657292801141,-91,-1272,164
1657292801181,-209,-1166,139
1657292801221,-181,-1133,-57
1657292801261,-155,-951,-93
1657292801301,-134,-700,86
1657292801341,-193,-657,45
1657292801381,-250,-677,20
1657292801421,-205,-762,113
1657292801461,-177,-861,151
1657292801501,-185,-996,128
1657292801541,-144,-1128,72
1657292801581,-85,-1309,109
1657292801621,-215,-1497,171
1657292801661,-324,-1355,357
1657292801701,-570,-1367,250
1657292801741,-554,-1302,-9
1657292801781,-413,-1128,63
1657292801821,-197,-907,276
1657292801861,-98,-758,317
1657292801901,-42,-693,256
1657292801941,5,-683,215
1657292801981,42,-784,164
1657292802021,46,-1002,125
1657292802061,52,-1172,120
1657292802101,112,-1253,198
1657292802141,139,-1386,204
1657292802181,135,-1242,259
1657292802221,-61,-1190,416
1657292802261,-94,-1242,151
1657292802301,-172,-1056,-45
1657292802341,-181,-748,92
1657292802381,-215,-671,27
1657292802421,-233,-675,7
1657292802461,-214,-748,95
1657292802501,-180,-854,117
1657292802541,-169,-978,58
1657292802581,-153,-1099,76
1657292802621,-132,-1238,101
1657292802661,-194,-1343,135
1657292802701,-235,-1285,248
1657292802741,-412,-1376,194
1657292802781,-499,-1430,-42
1657292802821,-471,-1253,70
1657292802861,-224,-1052,348
1657292802901,-109,-881,422
1657292802941,-1,-773,347
1657292802981,94,-717,256
1657292803021,91,-718,163
1657292803061,65,-829,180
1657292803101,59,-975,172
1657292803141,69,-1197,144
1657292803181,-12,-1286,163
1657292803221,-13,-1397,79
1657292803261,-100,-1241,141
1657292803301,-127,-1249,86
1657292803341,-172,-1180,-79
1657292803381,-180,-904,34
1657292803421,-225,-724,110
1657292803461,-223,-683,-6
1657292803501,-213,-738,89
1657292803541,-178,-790,128
1657292803581,-179,-973,89
1657292803621,-203,-1053,58
1657292803661,-172,-1146,114
1657292803701,-180,-1222,121
1657292803741,-104,-1294,171
1657292803781,-273,-1277,214
1657292803821,-491,-1414,89
1657292803861,-547,-1325,-60
1657292803901,-324,-1142,169
1657292803941,-175,-933,341
1657292803981,-98,-814,309
1657292804021,-37,-774,266
1657292804061,-4,-798,197
1657292804101,32,-849,143
1657292804141,59,-930,134
1657292804181,216,-1102,63
1657292804221,41,-1205,174
1657292804261,183,-1279,22
1657292804301,134,-1320,11
1657292804341,-87,-1338,227
1657292804381,-68,-1237,165
1657292804421,-61,-1017,12
1657292804461,-57,-755,16
1657292804501,-150,-693,-18
1657292804541,-147,-690,39
1657292804581,-152,-754,135
1657292804621,-139,-871,107
1657292804661,-155,-1027,55
1657292804701,-160,-1088,35
1657292804741,-127,-1200,63
1657292804781,-175,-1283,32
1657292804821,-165,-1287,187
1657292804861,-347,-1450,123
1657292804901,-512,-1472,-95
1657292804941,-484,-1304,85
1657292804981,-238,-1082,299
1657292805021,-140,-894,285
1657292805061,-51,-767,261
1657292805101,46,-706,232
1657292805141,71,-734,184
1657292805181,50,-854,182
1657292805221,35,-1021,216
1657292805261,81,-1190,236
1657292805301,55,-1204,220
1657292805341,186,-1383,44
1657292805381,94,-1183,118
1657292805421,64,-1205,106
1657292805461,-59,-1225,-32
1657292805501,-176,-1043,7
1657292805541,-195,-815,148
1657292805581,-302,-788,46
1657292805621,-257,-795,92
1657292805661,-213,-812,23
1657292805701,-149,-896,38
1657292805741,-145,-981,38
1657292805781,-114,-1099,73
1657292805821,-107,-1278,67
1657292805861,-191,-1320,128
1657292805901,-129,-1349,219
1657292805941,-396,-1367,84
1657292805981,-428,-1377,-127
1657292806021,-333,-1233,-38
1657292806061,-193,-1012,227
1657292806101,-124,-838,315
1657292806141,-74,-824,262
1657292806181,-40,-843,191
1657292806221,9,-806,248
1657292806261,30,-855,310
1657292806301,73,-1007,249
1657292806341,103,-1150,202
1657292806381,73,-1194,197
1657292806421,172,-1287,98
1657292806461,23,-1177,174
1657292806501,-69,-1180,101
1657292806541,-99,-1141,-8
1657292806581,-121,-910,-12
1657292806621,-159,-747,78
1657292806661,-250,-742,-14
1657292806701,-286,-788,-13
1657292806741,-171,-842,13
1657292806781,-156,-954,51
1657292806821,-165,-1051,88
1657292806861,-149,-1188,85
1657292806901,-180,-1305,110
1657292806941,-264,-1460,93
1657292806981,-357,-1279,248
1657292807021,-442,-1358,187
1657292807061,-512,-1290,-9
1657292807101,-315,-1113,184
1657292807141,-143,-871,326
1657292807181,-70,-774,287
1657292807221,-68,-750,226
1657292807261,-34,-753,215
1657292807301,13,-836,181
1657292807341,46,-997,191
1657292807381,47,-1208,126
1657292807421,33,-1251,143
1657292807461,131,-1361,155
1657292807501,3,-1180,251
1657292807541,-110,-1181,278
1657292807581,-95,-1179,53
1657292807621,-169,-968,38
1657292807661,-165,-744,137
1657292807701,-228,-678,21
1657292807741,-255,-717,27
1657292807781,-217,-790,88
1657292807821,-200,-898,67
1657292807861,-187,-1034,90
1657292807901,-226,-1166,88
1657292807941,-219,-1273,114
1657292807981,-231,-1413,87
1657292808021,-351,-1268,229
1657292808061,-410,-1312,203
1657292808101,-397,-1348,-51
1657292808141,-386,-1168,55
1657292808181,-162,-903,311
1657292808221,-83,-770,314
1657292808261,-90,-720,242
1657292808301,-28,-728,234
1657292808341,28,-847,197
1657292808381,-30,-980,137
1657292808421,-28,-1166,228
1657292808461,26,-1175,278
1657292808501,88,-1312,192
1657292808541,179,-1250,35
1657292808581,30,-1184,178
1657292808621,-23,-1176,42
1657292808661,-108,-1009,-66
1657292808701,-124,-715,25
1657292808741,-186,-648,-5
1657292808781,-239,-727,-4
1657292808821,-186,-828,65
1657292808861,-158,-923,139
1657292808901,-172,-1046,155
1657292808941,-171,-1180,152
1657292808981,-200,-1317,106
1657292809021,-289,-1326,126
1657292809061,-296,-1237,192
1657292809101,-341,-1290,157
1657292809141,-474,-1368,-56
1657292809181,-551,-1248,-60
1657292809221,-308,-1022,285
1657292809261,-162,-829,385
1657292809301,-84,-736,320
1657292809341,-36,-748,254
1657292809381,-11,-841,190
1657292809421,-74,-991,135
1657292809461,-50,-1193,187
1657292809501,2,-1218,240
1657292809541,108,-1365,208
1657292809581,248,-1220,161
1657292809621,13,-1128,359
1657292809661,5,-1121,95
1657292809701,-71,-972,-151
1657292809741,-121,-708,-73
1657292809781,-185,-672,-99
1657292809821,-205,-707,-34
1657292809861,-208,-775,72
1657292809901,-206,-863,153
1657292809941,-249,-987,145
1657292809981,-240,-1101,96
1657292810021,-157,-1278,39
1657292810061,-247,-1392,55
1657292810101,-302,-1394,160
1657292810141,-485,-1328,199
1657292810181,-471,-1363,39
1657292810221,-491,-1247,29
1657292810261,-290,-1020,234
1657292810301,-171,-861,332
1657292810341,-112,-749,286
1657292810381,-89,-736,261
1657292810421,-107,-765,220
1657292810461,-102,-858,164
1657292810501,-65,-944,158
1657292810541,-58,-1050,218
1657292810581,59,-1162,184
1657292810621,97,-1296,163
1657292810661,82,-1372,134
1657292810701,-32,-1277,281
1657292810741,-143,-1286,43
1657292810781,-122,-1089,-16
1657292810821,-103,-806,173
1657292810861,-237,-739,74
1657292810901,-310,-718,-16
1657292810941,-287,-748,32
1657292810981,-270,-856,79
1657292811021,-203,-968,87
1657292811061,-277,-1086,61
1657292811101,-211,-1168,16
1657292811141,-151,-1221,128
1657292811181,-187,-1337,154
1657292811221,-295,-1150,294
1657292811261,-386,-1259,214
1657292811301,-427,-1289,-27
1657292811341,-429,-1150,88
1657292811381,-221,-936,323
1657292811421,-176,-826,312
1657292811461,-159,-776,254
1657292811501,-100,-769,232
1657292811541,-33,-834,207
1657292811581,-31,-944,147
1657292811621,-48,-1065,150
1657292811661,46,-1209,145
1657292811701,31,-1395,83
1657292811741,147,-1299,73
1657292811781,18,-1156,352
1657292811821,-35,-1135,151
1657292811861,-158,-1028,-49
1657292811901,-132,-776,42
1657292811941,-180,-689,60
1657292811981,-208,-694,62
1657292812021,-245,-793,107
1657292812061,-225,-920,61
1657292812101,-235,-1018,59
1657292812141,-253,-1018,99
1657292812181,-230,-1128,163
1657292812221,-328,-1216,96
1657292812261,-266,-1266,114
1657292812301,-339,-1282,258
1657292812341,-523,-1481,88
1657292812381,-663,-1382,-94
1657292812421,-304,-1153,156
1657292812461,-190,-895,327
1657292812501,-173,-794,303
1657292812541,-120,-752,250
1657292812581,-55,-764,226
1657292812621,-41,-858,195
1657292812661,-121,-954,149
1657292812701,-20,-1088,160
1657292812741,42,-1104,113
1657292812781,119,-1321,51
1657292812821,147,-1169,61
1657292812861,-14,-1207,214
1657292812901,4,-1161,106
1657292812941,-120,-958,72
1657292812981,-182,-770,138
1657292813021,-272,-743,52
1657292813061,-367,-795,11
1657292813101,-361,-864,29
1657292813141,-313,-933,75
1657292813181,-250,-1042,39
1657292813221,-225,-1153,40
1657292813261,-238,-1354,77
1657292813301,-253,-1539,77
1657292813341,-382,-1395,280
1657292813381,-434,-1388,195
1657292813421,-412,-1201,45
1657292813461,-283,-1037,188
1657292813501,-192,-845,270
1657292813541,-113,-747,291
1657292813581,22,-702,236
1657292813621,88,-687,171
1657292813661,-7,-840,162
1657292813701,-100,-1057,202
1657292813741,-130,-1192,186
1657292813781,-7,-1318,164
1657292813821,21,-1303,123
1657292813861,163,-1234,95
1657292813901,-20,-1059,264
1657292813941,-119,-1085,164
1657292813981,-173,-1045,-59
1657292814021,-204,-802,45
1657292814061,-240,-693,75
1657292814101,-282,-720,-20
1657292814141,-301,-816,-2
1657292814181,-212,-873,74
1657292814221,-112,-893,71
1657292814261,-56,-1095,61
1657292814301,-128,-1316,177
1657292814341,-277,-1490,230
1657292814381,-314,-1444,302
1657292814421,-423,-1338,219
1657292814461,-448,-1247,-42
1657292814501,-427,-1134,-26
1657292814541,-239,-967,176
1657292814581,-125,-811,303
1657292814621,-72,-753,270
1657292814661,-81,-746,234
1657292814701,-61,-775,227
1657292814741,-46,-878,206
1657292814781,2,-1050,220
1657292814821,18,-1205,250
1657292814861,45,-1283,230
1657292814901,192,-1472,43
1657292814941,-27,-1228,337
1657292814981,-139,-1110,304
1657292815021,-52,-988,-42
1657292815061,-77,-763,-2
1657292815101,-160,-630,71
1657292815141,-246,-658,8
1657292815181,-244,-791,52
1657292815221,-228,-942,129
1657292815261,-265,-1020,152
1657292815301,-260,-1085,137
1657292815341,-244,-1180,112
1657292815381,-246,-1407,24
1657292815421,-267,-1417,189
1657292815461,-462,-1279,337
1657292815501,-487,-1274,165
1657292815541,-390,-1148,102
1657292815581,-219,-929,212
1657292815621,-146,-774,274
1657292815661,-109,-736,231
1657292815701,-90,-750,189
1657292815741,-74,-796,153
1657292815781,-96,-932,153
1657292815821,-71,-1072,180
1657292815861,8,-1227,220
1657292815901,-12,-1252,261
1657292815941,62,-1304,170
1657292815981,10,-1136,174
1657292816021,-80,-1109,229
1657292816061,-145,-1127,0
1657292816101,-149,-914,48
1657292816141,-141,-692,130
1657292816181,-200,-678,28
1657292816221,-289,-772,0
1657292816261,-260,-824,90
1657292816301,-248,-904,146
1657292816341,-292,-968,155
1657292816381,-206,-1208,138
1657292816421,-255,-1351,57
1657292816461,-144,-1447,251
1657292816501,-394,-1348,301
1657292816541,-565,-1275,194
1657292816581,-431,-1137,58
1657292816621,-287,-1002,60
1657292816661,-219,-846,146
1657292816701,-133,-770,172
1657292816741,-79,-719,207
1657292816781,-61,-761,188
1657292816821,-38,-800,148
1657292816861,14,-1012,169
1657292816901,-15,-1163,211
1657292816941,26,-1231,308
1657292816981,155,-1328,202
1657292817021,120,-1280,276
1657292817061,-175,-1288,266
1657292817101,-253,-1239,-74
1657292817141,-94,-860,-6
1657292817181,-140,-623,108
1657292817221,-223,-653,-23
1657292817261,-198,-726,15
1657292817301,-160,-836,45
1657292817341,-142,-931,87
1657292817381,-196,-1024,127
1657292817421,-204,-1108,115
1657292817461,-222,-1238,101
1657292817501,-228,-1391,104
1657292817541,-360,-1304,255
1657292817581,-468,-1463,185
1657292817621,-549,-1367,-23
1657292817661,-410,-1120,113
1657292817701,-164,-866,280
1657292817741,-10,-761,304
1657292817781,12,-698,181
1657292817821,22,-693,183
1657292817861,90,-826,192
1657292817901,47,-986,190
1657292817941,9,-1163,227
1657292817981,82,-1216,255
1657292818021,86,-1335,209
1657292818061,-7,-1180,260
1657292818101,-174,-1164,234
1657292818141,-218,-1194,16
1657292818181,-168,-1015,-4
1657292818221,-182,-763,145
1657292818261,-241,-697,27
1657292818301,-230,-724,9
1657292818341,-188,-809,13
1657292818381,-105,-890,107
1657292818421,-131,-987,189
1657292818461,-154,-1093,229
1657292818501,-212,-1272,175
1657292818541,-192,-1510,204
1657292818581,-373,-1418,273
1657292818621,-523,-1363,192
1657292818661,-351,-1182,42
1657292818701,-248,-1011,125
1657292818741,-168,-813,209
1657292818781,-111,-693,278
1657292818821,-60,-687,255
1657292818861,-65,-785,180
1657292818901,-52,-912,196
1657292818941,-42,-1020,235
1657292818981,-21,-1198,234
1657292819021,48,-1268,250
1657292819061,0,-1426,179
1657292819101,-15,-1206,190
1657292819141,-170,-1037,266
1657292819181,-109,-1030,-48
1657292819221,-35,-947,-68
1657292819261,-95,-769,133
1657292819301,-201,-706,139
1657292819341,-256,-722,56
1657292819381,-314,-822,22
1657292819421,-234,-915,67
1657292819461,-215,-938,139
1657292819501,-231,-1066,128
1657292819541,-241,-1244,89
1657292819581,-236,-1318,132
1657292819621,-260,-1313,205
1657292819661,-430,-1329,246
1657292819701,-483,-1373,122
1657292819741,-400,-1240,47
1657292819781,-202,-966,214
1657292819821,-142,-763,278
1657292819861,-93,-677,207
1657292819901,-69,-687,187
1657292819941,-48,-762,161
1657292819981,-22,-901,137
1657292820021,-34,-1062,141
1657292820061,1,-1249,156
1657292820101,-3,-1411,110
1657292820141,74,-1296,70
1657292820181,-108,-1147,346
1657292820221,-120,-1097,192
1657292820261,-177,-972,-146
1657292820301,-163,-697,-4
1657292820341,-230,-641,47
1657292820381,-270,-713,45
1657292820421,-247,-851,102
1657292820461,-178,-894,93
1657292820501,-166,-1022,77
1657292820541,-179,-1113,84
1657292820581,-219,-1189,142
1657292820621,-242,-1409,118
1657292820661,-409,-1318,212
1657292820701,-523,-1428,176
1657292820741,-557,-1343,-81
1657292820781,-415,-1142,137
1657292820821,-208,-948,305
1657292820861,-139,-813,260
1657292820901,-53,-756,299
1657292820941,23,-753,255
1657292820981,9,-803,212
1657292821021,-8,-886,200
1657292821061,45,-1061,183
1657292821101,13,-1197,83
1657292821141,0,-1335,53
1657292821181,55,-1183,99
1657292821221,-130,-1160,236
1657292821261,-129,-1190,149
1657292821301,-238,-1080,55
1657292821341,-260,-809,81
1657292821381,-262,-694,8
1657292821421,-270,-717,0
1657292821461,-258,-789,31
1657292821501,-237,-882,106
1657292821541,-220,-1032,86
1657292821581,-239,-1146,107
1657292821621,-253,-1313,77
1657292821661,-315,-1488,52
1657292821701,-309,-1228,286
1657292821741,-295,-1157,316
1657292821781,-278,-1128,70
1657292821821,-323,-1039,9
1657292821861,-261,-836,207
1657292821901,-222,-748,234
1657292821941,-180,-729,194
1657292821981,-109,-772,183
1657292822021,-92,-874,156
1657292822061,-104,-1004,126
1657292822101,-19,-1201,194
1657292822141,-47,-1309,135
1657292822181,83,-1512,114
1657292822221,158,-1289,222
1657292822261,42,-1165,352
1657292822301,21,-1071,66
1657292822341,-21,-811,-39
1657292822381,-111,-638,-55
1657292822421,-194,-634,-67
1657292822461,-219,-729,13
1657292822501,-204,-839,109
1657292822541,-195,-930,186
1657292822581,-263,-1028,141
1657292822621,-116,-1181,113
1657292822661,-198,-1378,85
1657292822701,-316,-1457,88
1657292822741,-413,-1329,270
1657292822781,-427,-1352,106
1657292822821,-416,-1219,-76
1657292822861,-239,-1028,113
1657292822901,-129,-791,306
1657292822941,-50,-704,324
1657292822981,-48,-707,237
1657292823021,-49,-755,194
1657292823061,-16,-881,172
1657292823101,17,-1036,139
1657292823141,48,-1201,137
1657292823181,30,-1254,173
1657292823221,88,-1363,98
1657292823261,-50,-1146,310
1657292823301,-118,-1185,349
1657292823341,-141,-1178,33
1657292823381,-224,-865,23
1657292823421,-193,-683,65
1657292823461,-222,-674,-22
1657292823501,-222,-757,12
1657292823541,-169,-843,116
1657292823581,-159,-936,116
1657292823621,-153,-1081,83
1657292823661,-239,-1199,102
1657292823701,-249,-1313,102
1657292823741,-256,-1353,141
1657292823781,-398,-1218,232
1657292823821,-346,-1380,135
1657292823861,-429,-1251,-66
1657292823901,-275,-989,204
1657292823941,-161,-782,343
1657292823981,-115,-732,212
1657292824021,-94,-732,182
1657292824061,-19,-757,156
1657292824101,-6,-846,138
1657292824141,56,-1094,163
1657292824181,105,-1235,195
1657292824221,20,-1303,229
1657292824261,68,-1206,197
1657292824301,-13,-1146,294
1657292824341,-69,-1195,162
1657292824381,-164,-1100,30
1657292824421,-135,-775,107
1657292824461,-213,-695,2
1657292824501,-292,-749,-62
1657292824541,-321,-838,9
1657292824581,-227,-908,65
1657292824621,-211,-978,76
1657292824661,-162,-1034,80
1657292824701,-198,-1107,175
1657292824741,-222,-1342,123
1657292824781,-220,-1438,216
1657292824821,-429,-1492,304
1657292824861,-557,-1347,153
1657292824901,-304,-1200,165
1657292824941,-145,-972,197
1657292824981,-115,-777,261
1657292825021,-28,-676,274
1657292825061,6,-696,211
1657292825101,-22,-785,150
1657292825141,18,-921,143
1657292825181,7,-1023,132
1657292825221,77,-1204,161
1657292825261,-4,-1199,186
1657292825301,-3,-1257,104
1657292825341,-83,-1207,190
1657292825381,-133,-1176,268
1657292825421,-240,-1155,158
1657292825461,-254,-914,114
1657292825501,-269,-747,50
1657292825541,-273,-721,2
1657292825581,-271,-790,7
1657292825621,-233,-826,89
1657292825661,-209,-899,63
1657292825701,-212,-1022,64
1657292825741,-199,-1109,130
1657292825781,-254,-1326,11
1657292825821,-278,-1453,110
1657292825861,-408,-1350,304
1657292825901,-475,-1388,184
1657292825941,-374,-1259,79
1657292825981,-200,-1039,240
1657292826021,-106,-826,319
1657292826061,-121,-755,278
1657292826101,-109,-703,238
1657292826141,-61,-710,223
1657292826181,-55,-798,173
1657292826221,-5,-926,154
1657292826261,7,-1097,135
1657292826301,6,-1200,173
1657292826341,7,-1371,158
1657292826381,41,-1291,121
1657292826421,-118,-1244,289
1657292826461,-67,-1204,136
1657292826501,-55,-1004,13
1657292826541,-46,-700,216
1657292826581,-121,-622,182
1657292826621,-281,-680,103
1657292826661,-379,-748,80
1657292826701,-247,-888,63
1657292826741,-265,-1069,39
1657292826781,-347,-1199,27
1657292826821,-216,-1304,124
1657292826861,-276,-1378,126
1657292826901,-203,-1321,214
1657292826941,-337,-1161,305
1657292826981,-377,-1202,41
1657292827021,-369,-1134,-81
1657292827061,-206,-1012,87
1657292827101,-161,-895,293
1657292827141,-208,-825,345
1657292827181,-148,-761,382
1657292827221,-92,-837,303
1657292827261,-79,-936,200
1657292827301,-40,-1002,174
1657292827341,26,-1073,216
1657292827381,78,-1086,175
1657292827421,110,-1329,56
1657292827461,71,-1260,65
1657292827501,-53,-1320,237
1657292827541,-2,-1243,234
1657292827581,-33,-972,232
1657292827621,-118,-720,219
1657292827661,-229,-665,26
1657292827701,-278,-662,-43
1657292827741,-287,-717,86
1657292827781,-234,-854,55
1657292827821,-294,-990,76
1657292827861,-249,-1175,91
1657292827901,-237,-1290,171
1657292827941,-341,-1388,175
1657292827981,-398,-1222,246
1657292828021,-466,-1234,207
1657292828061,-437,-1279,-1
1657292828101,-491,-1221,8
1657292828141,-355,-1051,220
1657292828181,-356,-970,323
1657292828221,-266,-932,329
1657292828261,-141,-905,243
1657292828301,-31,-864,187
1657292828341,-1,-879,160
1657292828381,-33,-908,195
1657292828421,52,-998,278
1657292828461,84,-1019,316
1657292828501,77,-1216,168
1657292828541,-54,-1193,61
1657292828581,-80,-1197,200
1657292828621,-150,-1183,42
1657292828661,-215,-1013,59
1657292828701,-223,-759,134
1657292828741,-313,-735,33
1657292828781,-380,-800,10
1657292828821,-331,-947,58
1657292828861,-419,-1104,67
1657292828901,-299,-1025,108
1657292828941,-55,-1015,201
1657292828981,-158,-1116,212
1657292829021,-175,-1342,179
1657292829061,-423,-1353,235
1657292829101,-703,-1356,246
1657292829141,-578,-1271,49
1657292829181,-360,-1112,83
1657292829221,-194,-893,207
1657292829261,-112,-785,263
1657292829301,-69,-741,252
1657292829341,-42,-747,251
1657292829381,-33,-783,225
1657292829421,-38,-1042,203
1657292829461,-94,-1262,89
1657292829501,-41,-1307,169
1657292829541,161,-1337,251
1657292829581,160,-1152,283
1657292829621,-137,-1081,337
1657292829661,-178,-1123,3
1657292829701,-143,-921,-81
1657292829741,-193,-738,92
1657292829781,-227,-683,48
1657292829821,-254,-747,29
1657292829861,-230,-800,72
1657292829901,-179,-848,128
1657292829941,-199,-917,107
1657292829981,-266,-1071,111
1657292830021,-250,-1272,60
1657292830061,-241,-1496,15
1657292830101,-311,-1481,250
1657292830141,-564,-1494,234
1657292830181,-513,-1297,137
1657292830221,-244,-1052,217
1657292830261,-153,-824,214
1657292830301,-138,-713,206
1657292830341,-93,-687,192
1657292830381,-55,-726,149
1657292830421,-26,-859,104
1657292830461,5,-1006,114
1657292830501,3,-1143,184
1657292830541,34,-1266,228
1657292830581,141,-1339,84
1657292830621,47,-1160,310
1657292830661,-90,-1179,353
1657292830701,-145,-1159,-43
1657292830741,-180,-875,25
1657292830781,-200,-700,110
1657292830821,-266,-707,13
1657292830861,-299,-787,18
1657292830901,-237,-868,88
1657292830941,-156,-938,160
1657292830981,-156,-1022,186
1657292831021,-172,-1159,216
1657292831061,-369,-1363,139
1657292831101,-381,-1430,126
1657292831141,-416,-1334,256
1657292831181,-423,-1352,50
1657292831221,-394,-1245,23
1657292831261,-279,-1082,261
1657292831301,-174,-865,373
1657292831341,-75,-745,330
1657292831381,-3,-702,261
1657292831421,48,-741,179
1657292831461,76,-863,135
1657292831501,31,-1025,170
1657292831541,71,-1252,223
1657292831581,75,-1305,267
1657292831621,229,-1270,208
1657292831661,2,-1141,347
1657292831701,-192,-1208,161
1657292831741,-175,-1093,-2
1657292831781,-229,-825,179
1657292831821,-285,-746,52
1657292831861,-310,-905,-54
1657292831901,-404,-963,-59
1657292831941,-169,-908,12
1657292831981,-70,-860,109
1657292832021,-118,-928,195
1657292832061,-66,-1118,213
1657292832101,-202,-1305,206
1657292832141,-296,-1408,228
1657292832181,-385,-1496,158
1657292832221,-362,-1418,46
1657292832261,-331,-1239,164
1657292832301,-202,-1038,289
1657292832341,-127,-952,306
1657292832381,-71,-858,253
1657292832421,66,-756,179
1657292832461,152,-685,116
1657292832501,133,-688,95
1657292832541,103,-870,138
1657292832581,128,-1060,190
1657292832621,40,-1241,300
1657292832661,-18,-1380,295
1657292832701,-173,-1236,396
1657292832741,-230,-1196,255
1657292832781,-130,-1163,-90
1657292832821,-204,-927,12
1657292832861,-157,-752,76
1657292832901,-225,-814,1
1657292832941,-244,-873,-53
1657292832981,-57,-843,25
1657292833021,-10,-844,97
1657292833061,68,-965,24
1657292833101,128,-1133,-53
1657292833141,52,-1454,39
1657292833181,-124,-1638,52
1657292833221,-545,-1548,47
1657292833261,-308,-1372,-40
1657292833301,-158,-1169,-2
1657292833341,-114,-954,74
1657292833381,-96,-823,170
1657292833421,-2,-742,210
1657292833461,47,-759,190
1657292833501,90,-843,173
1657292833541,122,-1017,206
1657292833581,197,-1180,242
1657292833621,277,-1221,269
1657292833661,237,-1334,257
1657292833701,91,-1151,321
1657292833741,-249,-1195,240
1657292833781,-370,-1217,-159
1657292833821,-195,-950,22
1657292833861,-269,-742,180
1657292833901,-264,-721,-9
1657292833941,-241,-735,-20
1657292833981,-145,-803,-2
1657292834021,-98,-903,65
1657292834061,-191,-1081,74
1657292834101,-132,-1225,66
1657292834141,-185,-1342,69
1657292834181,-229,-1362,40
1657292834221,-384,-1309,205
1657292834261,-415,-1367,84
1657292834301,-361,-1229,60
1657292834341,-257,-1007,180
1657292834381,-259,-814,223
1657292834421,-159,-736,189
1657292834461,-62,-681,105
1657292834501,-1,-671,35
1657292834541,-8,-908,-10
1657292834581,97,-1079,71
1657292834621,139,-1220,264
1657292834661,60,-1316,417
1657292834701,97,-1425,318
1657292834741,-138,-1303,417
1657292834781,-353,-1245,329
1657292834821,-182,-1056,58
1657292834861,-124,-757,136
1657292834901,-174,-653,167
1657292834941,-270,-814,277
1657292834981,-189,-673,98
1657292835021,-197,-809,226
1657292835061,-169,-888,286
1657292835101,-196,-950,242
1657292835141,-140,-1002,337
1657292835181,-176,-1302,385
1657292835221,-414,-1504,359
1657292835261,-712,-1434,476
1657292835301,-581,-1338,504
1657292835341,-344,-1155,422
1657292835381,-204,-933,386
1657292835421,-158,-839,372
1657292835461,-32,-701,322
1657292835501,-17,-705,349
1657292835541,54,-736,333
1657292835581,43,-894,358
1657292835621,52,-1041,440
1657292835661,77,-1067,484
1657292835701,53,-1174,409
1657292835741,54,-1167,328
1657292835781,-38,-1161,391
1657292835821,-135,-1262,330
1657292835861,-311,-1100,259
1657292835901,-244,-788,257
1657292835941,-270,-662,198
1657292835981,-235,-673,167
1657292836021,-234,-767,129
1657292836061,-180,-814,226
1657292836101,-217,-902,221
1657292836141,-178,-1097,299
1657292836181,-233,-1344,432
1657292836221,-439,-1547,438
1657292836261,-457,-1329,516
1657292836301,-360,-1307,362
1657292836341,-321,-1233,255
1657292836381,-182,-1051,281
1657292836421,-248,-857,375
1657292836461,-102,-704,407
1657292836501,-15,-667,323
1657292836541,21,-657,265
1657292836581,28,-754,238
1657292836621,39,-924,243
1657292836661,54,-1020,315
1657292836701,126,-1158,407
1657292836741,149,-1411,359
1657292836781,75,-1297,386
1657292836821,-174,-1418,359
1657292836861,-178,-1306,116
1657292836901,-124,-925,196
1657292836941,-162,-651,217
1657292836981,-271,-644,35
1657292837021,-270,-693,78
1657292837061,-187,-765,42
1657292837101,-176,-820,98
1657292837141,-227,-965,180
1657292837181,-130,-1100,199
1657292837221,-71,-1279,257
1657292837261,-199,-1482,304
1657292837301,-472,-1484,298
1657292837341,-589,-1561,149
1657292837381,-524,-1335,47
1657292837421,-272,-1114,254
1657292837461,-160,-899,319
1657292837501,-30,-771,274
1657292837541,-5,-751,262
1657292837581,-2,-783,244
1657292837621,18,-886,240
1657292837661,59,-977,287
1657292837701,96,-1037,375
1657292837741,196,-1080,409
1657292837781,163,-1236,274
1657292837821,32,-1194,93
1657292837861,-157,-1178,85
1657292837901,-192,-1183,106
1657292837941,-247,-1063,77
1657292837981,-268,-843,108
1657292838021,-278,-739,86
1657292838061,-289,-761,41
1657292838101,-247,-820,38
1657292838141,-183,-918,136
1657292838181,-196,-956,156
1657292838221,-141,-1060,203
1657292838261,-105,-1183,249
1657292838301,-184,-1496,262
1657292838341,-542,-1626,4
1657292838381,-593,-1496,124
1657292838421,-474,-1275,143
1657292838461,-319,-1085,170
1657292838501,-104,-890,230
1657292838541,-41,-769,188
1657292838581,-58,-717,175
1657292838621,-26,-699,231
1657292838661,-28,-763,229
1657292838701,14,-915,249
1657292838741,56,-1097,246
1657292838781,46,-1225,276
1657292838821,87,-1286,275
1657292838861,80,-1170,271
1657292838901,-145,-1184,338
1657292838941,-225,-1235,140
1657292838981,-287,-1089,40
1657292839021,-222,-771,129
1657292839061,-349,-752,-64
1657292839101,-314,-720,-82
1657292839141,-231,-770,37
1657292839181,-165,-822,112
1657292839221,-189,-912,78
1657292839261,-154,-997,138
1657292839301,-139,-1259,148
1657292839341,-284,-1602,154
1657292839381,-589,-1530,250
1657292839421,-714,-1492,70
1657292839461,-520,-1270,-4
1657292839501,-351,-1120,117
1657292839541,-212,-909,150
1657292839581,-80,-753,267
1657292839621,-67,-711,262
1657292839661,7,-718,232
1657292839701,9,-822,220
1657292839741,-33,-944,251
1657292839781,52,-1071,273
1657292839821,39,-1146,255
1657292839861,-60,-1187,186
1657292839901,-134,-1130,66
1657292839941,-262,-1153,46
1657292839981,-239,-1161,129
1657292840021,-326,-1106,168
1657292840061,-404,-906,166
1657292840101,-381,-767,119
1657292840141,-409,-814,21
1657292840181,-328,-825,41
1657292840221,-216,-864,166
1657292840261,-245,-940,181
1657292840301,-150,-1054,186
1657292840341,-248,-1285,120
1657292840381,-284,-1404,164
1657292840421,-396,-1330,394
1657292840461,-586,-1388,314
1657292840501,-485,-1246,186
1657292840541,-313,-1007,236
1657292840581,-210,-798,282
1657292840621,-115,-681,226
1657292840661,-25,-660,183
1657292840701,23,-709,100
1657292840741,-22,-853,149
1657292840781,-45,-1039,230
1657292840821,-190,-1444,160
1657292840861,74,-1181,333
1657292840901,3,-1332,356
1657292840941,-139,-1183,252
1657292840981,-278,-1165,224
1657292841021,-212,-1022,45
1657292841061,-184,-725,101
1657292841101,-232,-608,88
1657292841141,-320,-700,-57
1657292841181,-299,-811,-50
1657292841221,-281,-890,72
1657292841261,-271,-915,151
1657292841301,-278,-969,159
1657292841341,-213,-1095,149
1657292841381,-280,-1288,131
1657292841421,-390,-1376,72
1657292841461,-615,-1505,173
1657292841501,-605,-1464,260
1657292841541,-436,-1259,401
1657292841581,-265,-988,384
1657292841621,-170,-804,330
1657292841661,-60,-691,245
1657292841701,10,-675,150
1657292841741,62,-738,49
1657292841781,71,-883,74
1657292841821,73,-1073,175
1657292841861,176,-1130,266
1657292841901,93,-1153,373
1657292841941,21,-1165,349
1657292841981,-188,-1221,269
1657292842021,-292,-1293,187
1657292842061,-359,-1158,83
1657292842101,-346,-878,219
1657292842141,-333,-735,164
1657292842181,-322,-743,53
1657292842221,-292,-828,68
1657292842261,-302,-910,134
1657292842301,-260,-951,94
1657292842341,-196,-1130,85
1657292842381,-177,-1217,167
1657292842421,-158,-1294,255
1657292842461,-260,-1277,280
1657292842501,-406,-1299,327
1657292842541,-411,-1366,113
1657292842581,-412,-1202,119
1657292842621,-190,-916,319
1657292842661,-71,-719,394
1657292842701,-36,-654,269
1657292842741,-54,-667,218
1657292842781,-8,-733,208
1657292842821,-3,-893,180
1657292842861,-47,-1056,233
1657292842901,11,-1226,323
1657292842941,-12,-1474,206
1657292842981,27,-1355,137
1657292843021,-145,-1183,438
1657292843061,-69,-1169,122
1657292843101,-38,-926,-100
1657292843141,-143,-677,80
1657292843181,-230,-607,14
1657292843221,-256,-671,41
1657292843261,-261,-812,63
1657292843301,-268,-898,105
1657292843341,-194,-956,179
1657292843381,-158,-1069,161
1657292843421,-172,-1149,206
1657292843461,-172,-1373,245
1657292843501,-411,-1473,176
1657292843541,-726,-1538,98
1657292843581,-612,-1490,37
1657292843621,-360,-1311,189
1657292843661,-166,-1070,316
1657292843701,-60,-858,335
1657292843741,-12,-775,339
1657292843781,-1,-773,236
1657292843821,13,-755,213
1657292843861,10,-779,248
1657292843901,98,-874,252
1657292843941,186,-1024,246
1657292843981,106,-1125,278
1657292844021,121,-1304,101
1657292844061,-95,-1235,221
1657292844101,-258,-1212,353
1657292844141,-276,-1211,178
1657292844181,-347,-1042,47
1657292844221,-325,-817,162
1657292844261,-292,-739,177
1657292844301,-304,-801,168
1657292844341,-299,-896,177
1657292844381,-288,-983,142
1657292844421,-256,-1037,100
1657292844461,-167,-1179,144
1657292844501,-230,-1285,148
1657292844541,-226,-1427,235
1657292844581,-448,-1333,281
1657292844621,-499,-1352,229
1657292844661,-396,-1323,78
1657292844701,-304,-1191,194
1657292844741,-124,-922,368
1657292844781,-12,-751,435
1657292844821,25,-755,385
1657292844861,-28,-801,265
1657292844901,-48,-886,256
1657292844941,-5,-933,286
1657292844981,43,-1084,266
1657292845021,30,-1120,215
1657292845061,-54,-1251,135
1657292845101,-64,-1124,18
1657292845141,-158,-1022,180
1657292845181,-94,-1007,255
1657292845221,-163,-995,162
1657292845261,-218,-820,185
1657292845301,-259,-735,135
1657292845341,-322,-794,50
1657292845381,-345,-849,64
1657292845421,-327,-941,131
1657292845461,-327,-1118,87
1657292845501,-255,-1279,95
1657292845541,-338,-1482,179
1657292845581,-399,-1565,264
1657292845621,-596,-1320,349
1657292845661,-432,-1260,199
1657292845701,-270,-1120,136
1657292845741,-178,-949,223
1657292845781,-148,-793,265
1657292845821,-118,-723,276
1657292845861,-40,-750,286
1657292845901,-7,-823,243
1657292845941,-20,-976,257
1657292845981,-5,-1142,283
1657292846021,100,-1302,275
1657292846061,121,-1268,280
1657292846101,135,-1130,295
1657292846141,-35,-1041,366
1657292846181,-136,-1097,159
1657292846221,-215,-1082,-23
1657292846261,-243,-848,116
1657292846301,-259,-709,144
1657292846341,-355,-754,44
1657292846381,-408,-869,55
1657292846421,-364,-975,114
1657292846461,-296,-1038,181
1657292846501,-229,-1168,157
1657292846541,-221,-1267,149
1657292846581,-281,-1373,176
1657292846621,-364,-1215,290
1657292846661,-347,-1313,260
1657292846701,-409,-1360,38
1657292846741,-444,-1213,146
1657292846781,-224,-931,380
1657292846821,-136,-743,411
1657292846861,-53,-693,316
1657292846901,30,-678,238
1657292846941,106,-704,182
1657292846981,115,-906,188
1657292847021,111,-1147,219
1657292847061,14,-1321,240
1657292847101,-10,-1413,187
1657292847141,50,-1143,337
1657292847181,-88,-1153,353
1657292847221,-166,-1207,-8
1657292847261,-250,-960,-55
1657292847301,-288,-750,19
1657292847341,-254,-703,-18
1657292847381,-238,-785,84
1657292847421,-142,-802,231
1657292847461,-100,-867,88
1657292847501,-135,-1008,-89
1657292847541,-189,-1193,-60
1657292847581,-307,-1431,127
1657292847621,-397,-1492,354
1657292847661,-633,-1291,556
1657292847701,-538,-1339,346
1657292847741,-383,-1262,187
1657292847781,-343,-1020,207
1657292847821,-244,-846,273
1657292847861,-161,-740,284
1657292847901,-61,-738,264
1657292847941,35,-766,219
1657292847981,27,-848,232
1657292848021,-29,-1005,280
1657292848061,72,-1155,328
1657292848101,-2,-1252,312
1657292848141,66,-1286,233
1657292848181,-116,-1080,263
1657292848221,-256,-1211,161
1657292848261,-117,-1183,54
1657292848301,-242,-922,193
1657292848341,-322,-739,196
1657292848381,-312,-682,74
1657292848421,-303,-732,65
1657292848461,-202,-786,132
1657292848501,-121,-857,230
1657292848541,-220,-1044,241
1657292848581,-207,-1224,265
1657292848621,-353,-1377,278
1657292848661,-519,-1406,196
1657292848701,-667,-1336,239
1657292848741,-528,-1400,76
1657292848781,-481,-1290,58
1657292848821,-330,-1108,245
1657292848861,-240,-933,343
1657292848901,-152,-863,309
1657292848941,-41,-822,287
1657292848981,41,-806,276
1657292849021,113,-925,271
1657292849061,141,-1040,271
1657292849101,137,-1111,291
1657292849141,113,-1162,348
1657292849181,118,-1191,258
1657292849221,-131,-1014,309
1657292849261,-227,-1155,89
1657292849301,-175,-1132,31
1657292849341,-214,-880,208
1657292849381,-286,-764,187
1657292849421,-264,-787,96
1657292849461,-277,-847,81
1657292849501,-260,-926,95
1657292849541,-260,-1007,146
1657292849581,-367,-1077,140
1657292849621,-394,-1234,144
1657292849661,-384,-1367,113
1657292849701,-212,-1418,346
1657292849741,-472,-1500,346
1657292849781,-531,-1415,172
1657292849821,-248,-1165,278
1657292849861,-55,-929,345
1657292849901,-123,-787,227
1657292849941,-91,-722,231
1657292849981,6,-708,241
1657292850021,44,-774,178
1657292850061,101,-965,229
1657292850101,134,-1071,291
1657292850141,71,-1233,328
1657292850181,130,-1350,253
1657292850221,146,-1179,302
1657292850261,-142,-1210,343
1657292850301,-211,-1282,-12
1657292850341,-182,-1028,23
1657292850381,-229,-799,98
1657292850421,-252,-696,83
1657292850461,-282,-749,84
1657292850501,-254,-855,123
1657292850541,-266,-967,126
1657292850581,-261,-1026,135
1657292850621,-192,-1121,169
1657292850661,-267,-1280,127
1657292850701,-337,-1350,187
1657292850741,-454,-1326,279
1657292850781,-640,-1467,103
1657292850821,-599,-1335,47
1657292850861,-260,-1198,319
1657292850901,-186,-1044,291
1657292850941,-124,-880,312
1657292850981,3,-814,349
1657292851021,85,-783,223
1657292851061,132,-856,183
1657292851101,81,-917,198
1657292851141,114,-1057,263
1657292851181,161,-1068,290
1657292851221,210,-1304,166
1657292851261,47,-1170,282
1657292851301,-173,-1341,196
1657292851341,-246,-1342,-40
1657292851381,-285,-993,76
1657292851421,-311,-760,47
1657292851461,-287,-679,21
1657292851501,-298,-738,4
1657292851541,-249,-804,24
1657292851581,-226,-926,143
1657292851621,-267,-1015,103
1657292851661,-214,-1128,135
1657292851701,-236,-1356,166
1657292851741,-526,-1611,42
1657292851781,-670,-1470,277
1657292851821,-576,-1390,206
1657292851861,-286,-1251,176
1657292851901,-164,-1031,161
1657292851941,-141,-869,197
1657292851981,-133,-779,228
1657292852021,-70,-737,225
1657292852061,4,-773,189
1657292852101,20,-816,184
1657292852141,16,-899,359
1657292852181,47,-1111,408
1657292852221,-2,-1283,313
1657292852261,-53,-1451,33
1657292852301,36,-1193,43
1657292852341,-32,-1126,216
1657292852381,-125,-1128,38
1657292852421,-186,-912,105
1657292852461,-245,-710,125
1657292852501,-293,-682,50
1657292852541,-304,-735,24
1657292852581,-311,-862,46
1657292852621,-361,-1017,116
1657292852661,-348,-1175,159
1657292852701,-267,-1248,220
1657292852741,-278,-1412,233
1657292852781,-411,-1538,175
1657292852821,-655,-1361,172
1657292852861,-448,-1260,83
1657292852901,-256,-1156,74
1657292852941,-185,-1035,181
1657292852981,-125,-868,322
1657292853021,-123,-799,330
1657292853061,-95,-794,337
1657292853101,-49,-802,313
1657292853141,-47,-842,327
1657292853181,-10,-911,317
1657292853221,74,-1098,296
1657292853261,98,-1123,230
1657292853301,22,-1333,204
1657292853341,-88,-1183,79
1657292853381,-159,-1120,228
1657292853421,-155,-1112,157
1657292853461,-245,-1061,49
1657292853501,-98,-817,-2
1657292853541,-275,-706,114
1657292853581,-214,-694,136
1657292853621,-240,-814,150
1657292853661,-246,-892,158
1657292853701,-290,-998,96
1657292853741,-291,-1296,-118
1657292853781,-357,-1349,138
1657292853821,-176,-1467,283
1657292853861,-363,-1312,330
1657292853901,-524,-1465,159
1657292853941,-416,-1336,6
1657292853981,-265,-1106,160
1657292854021,-164,-929,230
1657292854061,-72,-842,186
1657292854101,-59,-806,193
1657292854141,35,-821,187
1657292854181,23,-942,173
1657292854221,-31,-1140,153
1657292854261,85,-1236,88
1657292854301,278,-1175,153
1657292854341,327,-1298,127
1657292854381,244,-1128,218
1657292854421,80,-1004,322
1657292854461,57,-967,177
1657292854501,-42,-832,150
1657292854541,-104,-727,209
1657292854581,-212,-746,184
1657292854621,-326,-908,147
1657292854661,-447,-1036,138
1657292854701,-396,-1084,206
1657292854741,-415,-1243,142
1657292854781,-397,-1409,11
1657292854821,-307,-1541,43
1657292854861,-302,-1513,185
1657292854901,-465,-1432,220
1657292854941,-390,-1459,112
1657292854981,-277,-1316,284
1657292855021,-34,-1112,500
1657292855061,-78,-936,335
1657292855101,-24,-853,327
1657292855141,63,-778,278
1657292855181,126,-805,225
1657292855221,119,-899,184
1657292855261,30,-1037,255
1657292855301,169,-1112,361
1657292855341,174,-1076,443
1657292855381,138,-1130,347
1657292855421,-55,-1129,270
1657292855461,-176,-1183,149
1657292855501,-265,-1141,105
1657292855541,-295,-958,178
1657292855581,-265,-762,224
1657292855621,-275,-764,110
1657292855661,-360,-824,-2
1657292855701,-340,-918,5
1657292855741,-312,-1011,86
1657292855781,-188,-1189,147
1657292855821,-199,-1338,385
1657292855861,-326,-1663,306
1657292855901,-487,-1630,96
1657292855941,-408,-1370,150
1657292855981,-111,-1057,214
1657292856021,-9,-938,331
1657292856061,-177,-837,412
1657292856101,-163,-792,383
1657292856141,-70,-756,357
1657292856181,40,-734,310
1657292856221,84,-790,282
1657292856261,84,-904,256
1657292856301,76,-1117,348
1657292856341,122,-1196,336
1657292856381,169,-1486,192
1657292856421,5,-1273,196
1657292856461,-182,-1188,381
1657292856501,-122,-1162,96
1657292856541,-165,-881,23
1657292856581,-237,-669,3
1657292856621,-266,-667,-59
1657292856661,-274,-757,5
1657292856701,-235,-865,41
1657292856741,-184,-912,149
1657292856781,-162,-984,208
1657292856821,-147,-1210,202
1657292856861,-276,-1407,156
1657292856901,-297,-1502,276
1657292856941,-487,-1436,355
1657292856981,-429,-1370,165
1657292857021,-341,-1238,160
