timestamp,accel_X,accel_Y,accel_Z
1657302361815,-816,490,-371
1657302361855,-831,516,-378
1657302361895,-816,502,-371
1657302361935,-809,513,-377
1657302361975,-800,509,-382
1657302362015,-818,532,-402
1657302362055,-797,560,-432
1657302362095,-763,505,-397
1657302362135,-783,445,-353
1657302362175,-845,477,-353
1657302362215,-867,502,-373
1657302362255,-863,506,-379
1657302362295,-840,453,-364
1657302362335,-883,482,-385
1657302362375,-843,468,-403
1657302362415,-822,435,-374
1657302362455,-778,405,-360
1657302362495,-795,447,-374
1657302362535,-705,414,-377
1657302362575,-676,381,-363
1657302362615,-927,677,-311
1657302362655,-815,696,-501
1657302362695,-548,570,-591
1657302362735,-535,624,-658
1657302362775,-661,677,-635
1657302362815,-718,207,-952
1657302362855,-617,312,-688
1657302362895,-187,227,-798
1657302362935,-500,478,-998
1657302362975,-426,374,-886
1657302363015,-315,438,-1002
1657302363055,-290,442,-840
1657302363095,-238,502,-968
1657302363135,-231,373,-809
1657302363175,-140,408,-828
1657302363215,-155,554,-1010
1657302363255,-74,458,-923
1657302363295,-115,468,-1042
1657302363335,-54,413,-975
1657302363375,-102,400,-937
1657302363415,-159,395,-975
1657302363455,-142,383,-951
1657302363495,-74,444,-1040
1657302363535,58,390,-909
1657302363575,123,345,-921
1657302363615,58,400,-881
1657302363655,67,470,-956
1657302363695,69,431,-938
1657302363735,15,408,-917
1657302363775,-10,402,-955
1657302363815,-167,391,-917
1657302363855,-195,375,-901
1657302363895,-259,381,-904
1657302363935,-263,421,-937
1657302363975,-321,447,-913
1657302364015,-335,459,-915
1657302364055,-306,422,-879
1657302364095,-238,396,-910
1657302364135,-228,431,-942
1657302364175,-232,456,-972
1657302364215,-239,433,-940
1657302364255,-259,420,-905
1657302364295,-263,401,-896
1657302364335,-299,386,-890
1657302364375,-337,368,-864
1657302364415,-382,355,-859
1657302364455,-412,344,-881
1657302364495,-435,349,-868
1657302364535,-429,346,-881
1657302364575,-453,346,-873
1657302364615,-483,339,-853
1657302364655,-476,306,-815
1657302364695,-458,318,-820
1657302364735,-488,320,-820
1657302364775,-501,341,-822
1657302364815,-486,371,-868
1657302364855,-473,357,-844
1657302364895,-488,378,-852
1657302364935,-498,392,-878
1657302364975,-497,373,-828
1657302365015,-490,377,-830
1657302365055,-494,387,-826
1657302365095,-500,380,-810
1657302365135,-507,389,-823
1657302365175,-486,386,-804
1657302365215,-500,386,-801
1657302365255,-492,364,-789
1657302365295,-501,369,-798
1657302365335,-524,359,-781
1657302365375,-561,368,-799
1657302365415,-555,382,-816
1657302365455,-541,398,-836
1657302365495,-532,390,-822
1657302365535,-521,398,-812
1657302365575,-526,397,-814
1657302365615,-502,387,-793
1657302365655,-525,413,-827
1657302365695,-508,375,-769
1657302365735,-508,362,-743
1657302365775,-538,401,-793
1657302365815,-531,381,-782
1657302365855,-549,384,-772
1657302365895,-551,388,-781
1657302365935,-559,389,-792
1657302365975,-563,398,-789
1657302366015,-572,421,-806
1657302366055,-549,412,-800
1657302366095,-548,412,-796
1657302366135,-537,413,-775
1657302366175,-540,421,-763
1657302366215,-547,424,-759
1657302366255,-530,410,-749
1657302366295,-529,424,-759
1657302366335,-527,433,-785
1657302366375,-526,443,-799
1657302366415,-492,421,-787
1657302366455,-513,412,-773
1657302366495,-548,424,-760
1657302366535,-569,414,-752
1657302366575,-563,402,-747
1657302366615,-579,395,-763
1657302366655,-591,411,-749
1657302366695,-596,424,-754
1657302366735,-583,423,-767
1657302366775,-563,411,-742
1657302366815,-564,414,-752
1657302366855,-551,415,-760
1657302366895,-563,407,-744
1657302366935,-567,414,-750
1657302366975,-577,430,-755
1657302367015,-574,419,-745
1657302367055,-565,416,-739
1657302367095,-581,434,-760
1657302367135,-571,435,-766
1657302367175,-561,419,-752
1657302367215,-557,437,-742
1657302367255,-566,438,-737
1657302367295,-557,438,-729
1657302367335,-562,439,-756
1657302367375,-550,436,-750
1657302367415,-576,430,-734
1657302367455,-587,450,-759
1657302367495,-562,453,-776
1657302367535,-543,437,-758
1657302367575,-554,432,-733
1657302367615,-565,442,-742
1657302367655,-575,441,-748
1657302367695,-561,443,-741
1657302367735,-550,440,-748
1657302367775,-555,442,-774
1657302367815,-531,435,-767
1657302367855,-547,422,-749
1657302367895,-575,407,-716
1657302367935,-599,413,-713
1657302367975,-613,420,-723
1657302368015,-619,434,-740
1657302368055,-620,416,-714
1657302368095,-595,424,-742
1657302368135,-601,434,-748
1657302368175,-591,447,-754
1657302368215,-572,453,-751
1657302368255,-567,460,-750
1657302368295,-545,452,-747
1657302368335,-540,437,-728
1657302368375,-535,443,-729
1657302368415,-546,451,-735
1657302368455,-554,462,-737
1657302368495,-535,459,-757
1657302368535,-547,469,-751
1657302368575,-567,438,-744
1657302368615,-567,441,-726
1657302368655,-567,447,-712
1657302368695,-569,426,-711
1657302368735,-578,470,-710
1657302368775,-564,464,-715
1657302368815,-561,504,-735
1657302368855,-547,486,-733
1657302368895,-529,512,-756
1657302368935,-564,575,-781
1657302368975,-555,574,-794
1657302369015,-482,478,-695
1657302369055,-474,466,-688
1657302369095,-555,490,-689
1657302369135,-584,504,-692
1657302369175,-544,541,-773
1657302369215,-533,486,-756
1657302369255,-470,431,-756
1657302369295,-390,449,-786
1657302369335,-396,481,-761
1657302369375,-493,644,-941
1657302369415,-396,586,-834
1657302369455,-355,522,-878
1657302369495,-300,417,-801
1657302369535,-307,396,-846
1657302369575,-287,384,-831
1657302369615,-321,406,-871
1657302369655,-318,410,-894
1657302369695,-337,412,-899
1657302369735,-349,402,-880
1657302369775,-362,446,-936
1657302369815,-345,413,-863
1657302369855,-358,421,-851
1657302369895,-332,429,-880
1657302369935,-323,441,-878
1657302369975,-317,451,-876
1657302370015,-293,405,-850
1657302370055,-305,420,-862
1657302370095,-311,414,-872
1657302370135,-310,443,-899
1657302370175,-312,418,-909
1657302370215,-317,440,-929
1657302370255,-320,444,-932
1657302370295,-305,418,-896
1657302370335,-333,462,-882
1657302370375,-319,455,-872
1657302370415,-306,440,-850
1657302370455,-291,444,-851
1657302370495,-304,441,-853
1657302370535,-299,447,-889
1657302370575,-301,430,-876
1657302370615,-306,433,-875
1657302370655,-309,409,-859
1657302370695,-327,436,-875
1657302370735,-323,443,-885
1657302370775,-338,457,-901
1657302370815,-312,425,-912
1657302370855,-320,427,-904
1657302370895,-339,410,-904
1657302370935,-324,407,-880
1657302370975,-333,394,-873
1657302371015,-323,385,-867
1657302371055,-332,407,-887
1657302371095,-315,393,-879
1657302371135,-322,396,-888
1657302371175,-312,388,-892
1657302371215,-312,341,-870
1657302371255,-315,373,-875
1657302371295,-329,318,-788
1657302371335,-290,442,-964
1657302371375,-361,536,-1082
1657302371415,-366,441,-1042
1657302371455,-296,230,-894
1657302371495,-254,219,-826
1657302371535,-278,260,-802
1657302371575,-279,310,-865
1657302371615,-350,462,-1076
1657302371655,-328,367,-987
1657302371695,-310,314,-963
1657302371735,-292,280,-945
1657302371775,-311,254,-879
1657302371815,-328,278,-890
1657302371855,-335,303,-927
1657302371895,-348,301,-922
1657302371935,-337,302,-936
1657302371975,-329,292,-923
1657302372015,-341,294,-924
1657302372055,-331,298,-919
1657302372095,-337,322,-955
1657302372135,-336,292,-904
1657302372175,-350,311,-930
1657302372215,-347,323,-940
1657302372255,-348,305,-919
1657302372295,-358,298,-905
1657302372335,-353,296,-906
1657302372375,-353,293,-896
1657302372415,-360,287,-901
1657302372455,-360,309,-946
1657302372495,-350,292,-928
1657302372535,-358,316,-949
1657302372575,-344,304,-924
1657302372615,-351,302,-924
1657302372655,-341,290,-920
1657302372695,-339,298,-904
1657302372735,-334,296,-896
1657302372775,-366,308,-905
1657302372815,-374,324,-941
1657302372855,-370,310,-945
1657302372895,-341,284,-926
1657302372935,-339,299,-937
1657302372975,-345,293,-928
1657302373015,-348,296,-928
1657302373055,-343,281,-910
1657302373095,-354,279,-888
1657302373135,-357,273,-876
1657302373175,-330,242,-806
1657302373215,-188,185,-667
1657302373255,-824,648,-1547
1657302373295,-208,482,-1010
1657302373335,-335,301,-943
1657302373375,-258,170,-777
1657302373415,-293,175,-757
1657302373455,-311,230,-875
1657302373495,-349,267,-940
1657302373535,-397,318,-978
1657302373575,-388,265,-970
1657302373615,-348,289,-947
1657302373655,-335,338,-949
1657302373695,-352,317,-923
1657302373735,-247,265,-863
1657302373775,-193,204,-766
1657302373815,-59,104,-502
1657302373855,-429,178,-1600
1657302373895,-202,770,-1410
1657302373935,-203,604,-831
1657302373975,-218,82,-737
1657302374015,-292,170,-791
1657302374055,-398,161,-820
1657302374095,-225,174,-896
1657302374135,-409,252,-967
1657302374175,-377,225,-1003
1657302374215,-368,203,-994
1657302374255,-484,251,-918
1657302374295,-494,297,-930
1657302374335,-602,358,-886
1657302374375,-498,341,-977
1657302374415,-367,274,-896
1657302374455,-232,251,-956
1657302374495,-246,263,-1134
1657302374535,-341,279,-840
1657302374575,-1199,-847,1372
1657302374615,-1021,634,1338
1657302374655,-235,-572,506
1657302374695,-627,-443,575
1657302374735,-445,-435,636
1657302374775,-492,-540,473
1657302374815,-432,-604,560
1657302374855,-493,-632,530
1657302374895,-470,-725,538
1657302374935,-408,-875,580
1657302374975,-381,-805,561
1657302375015,-455,-796,300
1657302375055,-440,-806,252
1657302375095,-458,-868,317
1657302375135,-444,-849,132
1657302375175,-441,-823,117
1657302375215,-409,-835,113
1657302375255,-316,-722,-27
1657302375295,-406,-271,-283
1657302375335,-716,-739,450
1657302375375,-1533,473,-141
1657302375415,188,-609,-1043
1657302375455,-737,45,-572
1657302375495,-1166,165,582
1657302375535,-1486,54,739
1657302375575,-1048,519,179
1657302375615,-1063,291,140
1657302375655,-1052,182,261
1657302375695,-1088,353,304
1657302375735,-1031,244,375
1657302375775,-971,219,422
1657302375815,-940,248,394
1657302375855,-936,241,417
1657302375895,-955,241,473
1657302375935,-953,228,465
1657302375975,-946,225,440
1657302376015,-949,245,434
1657302376055,-952,270,429
1657302376095,-948,293,410
1657302376135,-923,310,399
1657302376175,-928,329,374
1657302376215,-952,344,365
1657302376255,-932,356,321
1657302376295,-916,345,287
1657302376335,-899,329,296
1657302376375,-893,282,326
1657302376415,-933,264,371
1657302376455,-943,265,383
1657302376495,-935,258,379
1657302376535,-929,281,367
1657302376575,-908,274,352
1657302376615,-923,293,346
1657302376655,-944,297,344
1657302376695,-935,306,333
1657302376735,-935,304,334
1657302376775,-926,299,331
1657302376815,-937,287,357
1657302376855,-934,273,360
1657302376895,-921,268,358
1657302376935,-942,267,373
1657302376975,-933,265,351
1657302377015,-928,275,355
1657302377055,-943,282,357
1657302377095,-931,295,353
1657302377135,-919,290,331
1657302377175,-913,285,334
1657302377215,-914,285,346
1657302377255,-929,282,352
1657302377295,-924,275,360
1657302377335,-940,274,351
1657302377375,-945,272,364
1657302377415,-944,272,356
1657302377455,-922,277,363
1657302377495,-932,289,371
1657302377535,-922,287,372
1657302377575,-908,287,356
1657302377615,-905,289,350
1657302377655,-952,292,375
1657302377695,-935,278,368
1657302377735,-922,264,353
1657302377775,-954,283,358
1657302377815,-951,296,351
1657302377855,-930,277,355
1657302377895,-914,270,347
1657302377935,-911,279,346
1657302377975,-928,286,353
1657302378015,-922,265,337
1657302378055,-932,263,332
1657302378095,-964,298,336
1657302378135,-975,318,375
1657302378175,-924,296,383
1657302378215,-872,299,344
1657302378255,-893,323,360
1657302378295,-899,326,393
1657302378335,-845,263,388
1657302378375,-852,245,404
1657302378415,-911,268,421
1657302378455,-959,329,402
1657302378495,-965,379,334
1657302378535,-957,451,221
1657302378575,-913,588,93
1657302378615,-838,668,-17
1657302378655,-783,750,-353
1657302378695,-753,705,-384
1657302378735,-511,748,-467
1657302378775,-358,552,-514
1657302378815,-312,684,-639
1657302378855,-766,837,-807
1657302378895,-794,686,-479
1657302378935,-778,697,-1045
1657302378975,-705,341,-719
1657302379015,-268,-51,-840
1657302379055,-247,-72,-605
1657302379095,-175,202,-1107
1657302379135,-390,224,-989
1657302379175,-386,360,-1186
1657302379215,-549,370,-1095
1657302379255,-156,229,-977
1657302379295,-191,203,-995
1657302379335,-168,228,-1033
1657302379375,-164,152,-870
1657302379415,-366,402,-1120
1657302379455,-468,385,-1138
1657302379495,-159,126,-986
1657302379535,-392,213,-795
1657302379575,-385,341,-977
1657302379615,-340,200,-942
1657302379655,-386,87,-964
1657302379695,-449,148,-816
1657302379735,-450,76,-999
1657302379775,-422,75,-968
1657302379815,-417,119,-894
1657302379855,-401,4,-979
1657302379895,-397,13,-959
1657302379935,-418,70,-914
1657302379975,-336,-11,-998
1657302380015,-369,-23,-963
1657302380055,-390,60,-1003
1657302380095,-489,66,-1008
1657302380135,-217,37,-804
1657302380175,-1331,1132,-1700
1657302380215,-1592,654,-1708
1657302380255,-23,252,-1201
1657302380295,-557,172,-292
1657302380335,-290,367,-136
1657302380375,46,675,-108
1657302380415,414,594,-407
1657302380455,369,855,-364
1657302380495,718,741,-546
1657302380535,437,597,-503
1657302380575,351,905,-458
1657302380615,549,989,-628
1657302380655,559,806,-592
1657302380695,490,785,-440
1657302380735,524,780,-528
1657302380775,450,756,-453
1657302380815,454,801,-511
1657302380855,311,835,-482
1657302380895,255,1083,-692
1657302380935,404,848,-500
1657302380975,383,825,-411
1657302381015,321,743,-481
1657302381055,380,636,-382
1657302381095,309,634,-491
1657302381135,283,705,-621
1657302381175,333,710,-639
1657302381215,364,808,-615
1657302381255,415,841,-554
1657302381295,504,807,-410
1657302381335,490,934,-482
1657302381375,509,979,-521
1657302381415,401,890,-436
1657302381455,137,855,-309
1657302381495,260,1070,-666
1657302381535,380,872,-634
1657302381575,309,835,-493
1657302381615,264,789,-535
1657302381655,259,769,-459
1657302381695,273,761,-479
1657302381735,287,762,-484
1657302381775,315,726,-522
1657302381815,291,711,-490
1657302381855,267,679,-427
1657302381895,400,715,-596
1657302381935,394,830,-704
1657302381975,319,873,-719
1657302382015,370,790,-705
1657302382055,302,840,-739
1657302382095,249,812,-694
1657302382135,201,818,-718
1657302382175,195,768,-642
1657302382215,188,803,-648
1657302382255,225,693,-586
1657302382295,243,589,-468
1657302382335,257,645,-582
1657302382375,244,578,-542
1657302382415,211,584,-491
1657302382455,238,649,-583
1657302382495,322,570,-432
1657302382535,413,562,-435
1657302382575,327,607,-393
1657302382615,211,705,-219
1657302382655,203,855,131
1657302382695,153,1154,458
1657302382735,161,1554,807
1657302382775,196,1785,1251
1657302382815,-38,1813,1637
1657302382855,-482,1636,1454
1657302382895,-340,1440,798
1657302382935,-90,1231,497
1657302382975,53,1001,265
1657302383015,52,1040,171
1657302383055,-217,1168,217
1657302383095,-442,1174,253
1657302383135,-495,1198,259
1657302383175,-480,1269,310
1657302383215,-543,1341,335
1657302383255,-493,1397,233
1657302383295,-290,1330,374
1657302383335,-336,1253,539
1657302383375,-276,1343,637
1657302383415,-19,1589,832
1657302383455,91,1631,896
1657302383495,158,1604,823
1657302383535,215,1340,710
1657302383575,221,1027,585
1657302383615,256,861,450
1657302383655,282,619,330
1657302383695,285,524,243
1657302383735,297,661,200
1657302383775,371,807,184
1657302383815,535,967,178
1657302383855,576,1159,383
1657302383895,265,1367,726
1657302383935,10,1633,895
1657302383975,-130,1732,763
1657302384015,-234,1672,583
1657302384055,-394,1532,372
1657302384095,-326,1335,177
1657302384135,-221,1163,90
1657302384175,-216,1090,41
1657302384215,-283,1075,66
1657302384255,-357,1065,177
1657302384295,-368,1140,189
1657302384335,-319,1259,318
1657302384375,-251,1423,445
1657302384415,-251,1395,397
1657302384455,-87,1513,716
1657302384495,23,1684,1000
1657302384535,107,1450,890
1657302384575,227,1284,758
1657302384615,252,1179,522
1657302384655,236,1030,382
1657302384695,224,867,384
1657302384735,209,846,361
1657302384775,166,794,213
1657302384815,335,735,135
1657302384855,513,692,172
1657302384895,566,888,224
1657302384935,524,1454,296
1657302384975,304,1324,504
1657302385015,215,1342,994
1657302385055,175,1527,1027
1657302385095,128,1630,845
1657302385135,-192,1704,744
1657302385175,-476,1721,464
1657302385215,-560,1537,268
1657302385255,-458,1379,228
1657302385295,-411,1164,69
1657302385335,-355,986,75
1657302385375,-301,957,138
1657302385415,-237,1060,230
1657302385455,-218,1343,256
1657302385495,-85,1434,430
1657302385535,-22,1636,698
1657302385575,-102,1634,792
1657302385615,23,1671,891
1657302385655,274,1714,989
1657302385695,435,1490,853
1657302385735,447,1140,567
1657302385775,351,900,356
1657302385815,239,661,276
1657302385855,227,510,267
1657302385895,225,462,223
1657302385935,174,544,179
1657302385975,151,667,175
1657302386015,233,981,272
1657302386055,258,1283,319
1657302386095,364,1625,580
1657302386135,324,1718,860
1657302386175,-124,1634,934
1657302386215,-410,1582,622
1657302386255,-231,1550,288
1657302386295,-174,1313,283
1657302386335,-310,1057,288
1657302386375,-246,926,173
1657302386415,-156,875,135
1657302386455,-169,898,156
1657302386495,-211,958,183
1657302386535,-122,949,349
1657302386575,-88,1014,375
1657302386615,-54,1124,286
1657302386655,-136,1215,346
1657302386695,-149,1435,269
1657302386735,-211,1417,442
1657302386775,-209,1330,679
1657302386815,-10,1437,794
1657302386855,155,1427,795
1657302386895,259,1259,752
1657302386935,195,1054,522
1657302386975,149,946,366
1657302387015,116,830,245
1657302387055,46,760,208
1657302387095,122,675,264
1657302387135,130,541,286
1657302387175,100,525,250
1657302387215,117,590,175
1657302387255,177,729,180
1657302387295,338,1117,324
1657302387335,386,1791,514
1657302387375,105,2047,722
1657302387415,-326,1736,922
1657302387455,-566,1418,681
1657302387495,-247,1362,356
1657302387535,-1,1080,166
1657302387575,30,877,90
1657302387615,-63,821,120
1657302387655,-88,823,210
1657302387695,-56,920,273
1657302387735,-64,1004,278
1657302387775,29,935,322
1657302387815,102,898,306
1657302387855,177,917,235
1657302387895,191,1018,212
1657302387935,168,1107,283
1657302387975,138,1143,405
1657302388015,60,1180,468
1657302388055,-116,1187,397
1657302388095,-177,1129,269
1657302388135,-78,1205,354
1657302388175,-60,1187,461
1657302388215,-2,1221,572
1657302388255,-19,1094,475
1657302388295,67,988,458
1657302388335,138,904,454
1657302388375,-18,976,393
1657302388415,-99,996,427
1657302388455,-201,958,520
1657302388495,-284,934,489
1657302388535,-1045,1404,981
1657302388575,-1440,1466,722
1657302388615,-714,1467,232
1657302388655,126,1158,-524
1657302388695,-264,747,-723
1657302388735,-158,701,-571
1657302388775,-328,494,-506
1657302388815,-300,353,-278
1657302388855,-364,-43,-60
1657302388895,-462,184,-362
1657302388935,-460,431,-884
1657302388975,-677,239,-864
1657302389015,-667,465,-944
1657302389055,-556,203,-989
1657302389095,-276,90,-1020
1657302389135,-26,-151,-677
1657302389175,-50,462,-1212
1657302389215,-260,135,-1655
1657302389255,-241,211,-1208
1657302389295,-477,-152,-514
1657302389335,-420,-222,-704
1657302389375,-506,-76,-744
1657302389415,-214,-247,-434
1657302389455,22,-207,-560
1657302389495,-612,581,-2048
1657302389535,-96,114,-1634
1657302389575,-616,143,-987
1657302389615,45,-310,-347
1657302389655,-142,-188,-286
1657302389695,-133,-9,-785
1657302389735,-693,236,-1882
1657302389775,-189,1,-1120
1657302389815,-233,-150,-502
1657302389855,-38,-201,-292
1657302389895,-536,242,-2030
1657302389935,-213,187,-1523
1657302389975,-407,-78,-953
1657302390015,-106,-189,-467
1657302390055,-98,-138,-429
1657302390095,-248,212,-813
1657302390135,-357,197,-2038
1657302390175,-122,244,-1198
1657302390215,-360,-138,-389
1657302390255,-229,-167,-613
1657302390295,-259,-73,-882
1657302390335,-238,-127,-876
1657302390375,-201,-147,-821
1657302390415,-264,35,-976
1657302390455,-111,-47,-1775
1657302390495,-149,-115,-1162
1657302390535,-583,-288,-549
1657302390575,-656,-134,-502
1657302390615,-496,-83,-638
1657302390655,-430,-189,-554
1657302390695,-444,-86,-834
1657302390735,-310,-95,-909
1657302390775,-101,-180,-1136
1657302390815,-709,107,-1694
1657302390855,-492,-7,-1137
1657302390895,-410,-211,-576
1657302390935,-397,-300,-408
1657302390975,-468,-271,-512
1657302391015,-404,-300,-474
1657302391055,-197,-226,-892
1657302391095,-799,33,-1722
1657302391135,-427,-132,-1571
1657302391175,-737,-177,-661
1657302391215,-270,-319,-449
1657302391255,-210,-342,-601
1657302391295,-423,-192,-696
1657302391335,-358,-227,-619
1657302391375,-158,-182,-557
1657302391415,-371,1080,-2048
1657302391455,-234,75,-1479
1657302391495,-295,-134,-839
1657302391535,-352,-284,-561
1657302391575,-390,-272,-628
1657302391615,-461,-266,-695
1657302391655,-262,-432,-325
1657302391695,-152,-147,-969
1657302391735,-663,-43,-1662
1657302391775,-687,71,-1523
1657302391815,-441,-298,-565
1657302391855,-335,-352,-425
1657302391895,-479,-178,-446
1657302391935,-624,-125,-769
1657302391975,-576,0,-482
1657302392015,-536,-46,-532
1657302392055,-508,119,-493
1657302392095,-592,471,-421
1657302392135,-104,-46,-350
1657302392175,205,-89,-280
1657302392215,550,572,26
1657302392255,161,1981,-162
1657302392295,210,1532,90
1657302392335,262,1877,711
1657302392375,-183,2047,1026
1657302392415,-635,2047,735
1657302392455,-713,1595,636
1657302392495,-527,1329,349
1657302392535,-284,1203,246
1657302392575,-209,1058,148
1657302392615,-221,1011,136
1657302392655,-157,1100,205
1657302392695,-244,1270,253
1657302392735,-277,1387,188
1657302392775,-377,1306,206
1657302392815,-319,1448,319
1657302392855,-91,1487,506
1657302392895,3,1390,590
1657302392935,100,1289,714
1657302392975,152,1053,684
1657302393015,223,916,530
1657302393055,272,767,500
1657302393095,341,547,493
1657302393135,461,477,443
1657302393175,522,632,384
1657302393215,479,874,499
1657302393255,570,1037,545
1657302393295,260,1342,708
1657302393335,-34,1416,794
1657302393375,-528,1889,364
1657302393415,30,1516,538
1657302393455,-328,1301,371
1657302393495,-354,1242,248
1657302393535,-251,1186,97
1657302393575,-217,1117,86
1657302393615,-305,1115,142
1657302393655,-357,1155,267
1657302393695,-329,1328,333
1657302393735,-252,1501,479
1657302393775,-326,1474,438
1657302393815,-284,1435,531
1657302393855,42,1482,677
1657302393895,164,1429,791
1657302393935,146,1228,795
1657302393975,203,1026,675
1657302394015,313,994,544
1657302394055,382,740,493
1657302394095,451,567,487
1657302394135,468,673,373
1657302394175,477,767,230
1657302394215,363,913,259
1657302394255,351,1243,476
1657302394295,214,1436,534
1657302394335,-59,1235,776
1657302394375,-231,1286,923
1657302394415,-134,1319,575
1657302394455,-213,1227,407
1657302394495,-354,1156,294
1657302394535,-278,1101,190
1657302394575,-208,1089,200
1657302394615,-248,1069,194
1657302394655,-277,1008,231
1657302394695,-182,1120,295
1657302394735,-134,1105,358
1657302394775,-107,1261,539
1657302394815,-82,1348,554
1657302394855,-219,1347,407
1657302394895,-132,1432,604
1657302394935,24,1362,687
1657302394975,134,1186,771
1657302395015,161,1027,594
1657302395055,175,937,464
1657302395095,172,843,351
1657302395135,169,667,286
1657302395175,162,566,289
1657302395215,215,650,280
1657302395255,224,789,258
1657302395295,236,987,362
1657302395335,414,1172,401
1657302395375,384,1413,518
1657302395415,28,1425,657
1657302395455,-213,1294,719
1657302395495,-148,1361,391
1657302395535,-87,1230,248
1657302395575,-289,1125,222
1657302395615,-364,1075,171
1657302395655,-318,1049,136
1657302395695,-236,1020,184
1657302395735,-238,962,237
1657302395775,-197,993,230
1657302395815,-108,1111,263
1657302395855,-145,1243,322
1657302395895,-117,1386,427
1657302395935,-128,1418,447
1657302395975,-256,1381,483
1657302396015,-198,1385,644
1657302396055,-40,1343,761
1657302396095,104,1219,674
1657302396135,143,994,612
1657302396175,147,915,485
1657302396215,251,760,325
1657302396255,282,608,195
1657302396295,208,573,218
1657302396335,238,610,229
1657302396375,241,830,257
1657302396415,249,1093,233
1657302396455,186,1295,327
1657302396495,151,1305,479
1657302396535,-73,1391,500
1657302396575,-263,1382,452
1657302396615,-367,1439,338
1657302396655,-370,1181,288
1657302396695,-342,1016,251
1657302396735,-225,963,197
1657302396775,-176,953,183
1657302396815,-126,948,81
1657302396855,-126,989,82
1657302396895,-133,1024,250
1657302396935,-165,1065,366
1657302396975,-263,1123,391
1657302397015,-124,1192,386
1657302397055,-173,1184,276
1657302397095,-386,1276,408
1657302397135,-142,1393,482
1657302397175,-165,1331,488
1657302397215,-44,1228,479
1657302397255,40,1089,369
1657302397295,116,996,294
1657302397335,148,824,304
1657302397375,174,707,283
1657302397415,186,670,232
1657302397455,189,743,227
1657302397495,203,853,263
1657302397535,231,1035,281
1657302397575,248,1080,328
1657302397615,250,1109,431
1657302397655,-11,1190,488
1657302397695,-197,1287,521
1657302397735,-162,1422,383
1657302397775,-276,1362,347
1657302397815,-436,1192,306
1657302397855,-341,1113,211
1657302397895,-200,1043,149
1657302397935,-95,973,106
1657302397975,-118,986,140
1657302398015,-162,1008,257
1657302398055,-149,1176,357
1657302398095,-68,1402,370
1657302398135,-43,1268,482
1657302398175,-229,1254,342
1657302398215,-108,1266,414
1657302398255,-13,1254,514
1657302398295,-19,1099,534
1657302398335,22,982,461
1657302398375,98,869,376
1657302398415,156,789,324
1657302398455,188,737,306
1657302398495,176,736,342
1657302398535,131,793,399
1657302398575,193,905,420
1657302398615,198,1099,263
1657302398655,269,1104,261
1657302398695,107,1121,345
1657302398735,-82,1191,421
1657302398775,-202,1228,461
1657302398815,-336,1221,334
1657302398855,-263,1029,348
1657302398895,-293,924,277
1657302398935,-289,908,192
1657302398975,-257,936,163
1657302399015,-266,1004,130
1657302399055,-308,977,181
1657302399095,-393,1007,281
1657302399135,-385,1161,365
1657302399175,-453,1357,497
1657302399215,-312,1456,421
1657302399255,-480,1321,298
1657302399295,-341,1368,561
1657302399335,-318,1316,742
1657302399375,-171,1190,680
1657302399415,-2,1056,674
1657302399455,76,1066,585
1657302399495,144,917,370
1657302399535,224,651,352
1657302399575,267,424,324
1657302399615,239,476,222
1657302399655,285,738,151
1657302399695,281,1004,159
1657302399735,273,1323,336
1657302399775,207,1414,614
1657302399815,-75,1500,770
1657302399855,-325,1451,646
1657302399895,-304,1437,475
1657302399935,-299,1247,317
1657302399975,-375,1036,322
1657302400015,-301,917,262
1657302400055,-214,843,206
1657302400095,-188,934,127
1657302400135,-237,1053,178
1657302400175,-331,1145,382
1657302400215,-258,1293,488
1657302400255,-215,1336,483
1657302400295,-84,1328,515
1657302400335,-159,1305,308
1657302400375,-27,1397,368
1657302400415,57,1311,752
1657302400455,-9,1148,880
1657302400495,46,1012,725
1657302400535,135,940,409
1657302400575,211,813,246
1657302400615,238,625,164
1657302400655,269,592,90
1657302400695,217,604,165
1657302400735,207,733,226
1657302400775,264,940,292
1657302400815,288,1209,369
1657302400855,196,1405,487
1657302400895,-67,1446,509
1657302400935,-334,1498,428
1657302400975,-409,1518,325
1657302401015,-431,1298,427
1657302401055,-427,1053,362
1657302401095,-338,923,209
1657302401135,-236,871,165
1657302401175,-149,857,204
1657302401215,-114,877,201
1657302401255,-105,910,159
1657302401295,-97,986,208
1657302401335,-160,1198,249
1657302401375,-255,1417,295
1657302401415,-238,1343,412
1657302401455,-366,1292,346
1657302401495,-208,1233,312
1657302401535,-117,1153,390
1657302401575,-149,1093,412
1657302401615,-141,956,435
1657302401655,-141,922,439
1657302401695,-195,902,435
1657302401735,-156,835,413
1657302401775,-289,936,377
1657302401815,-494,912,383
1657302401855,-435,878,369
1657302401895,-427,876,126
1657302401935,-306,786,0
1657302401975,-593,897,-75
1657302402015,-831,958,7
1657302402055,-896,882,51
1657302402095,-718,880,-95
1657302402135,-666,801,-205
1657302402175,-617,606,-171
1657302402215,-677,515,-160
1657302402255,-650,659,-272
1657302402295,-706,586,-135
1657302402335,-733,581,-233
1657302402375,-824,455,-153
1657302402415,-921,407,-91
1657302402455,-978,437,-143
1657302402495,-935,334,-118
1657302402535,-995,414,2
1657302402575,-1247,590,186
1657302402615,-1005,625,-178
1657302402655,-719,576,-545
1657302402695,-649,449,-485
1657302402735,-597,393,-424
1657302402775,-536,282,-557
1657302402815,-597,442,-662
1657302402855,-570,397,-539
1657302402895,-565,455,-727
1657302402935,-572,463,-648
1657302402975,-556,461,-736
1657302403015,-457,542,-809
1657302403055,-548,637,-800
1657302403095,-694,755,-873
1657302403135,-564,608,-780
1657302403175,-468,474,-629
1657302403215,-482,413,-678
1657302403255,-489,358,-678
1657302403295,-490,287,-632
1657302403335,-535,302,-647
1657302403375,-489,390,-720
1657302403415,-578,407,-784
1657302403455,-604,354,-746
1657302403495,-625,356,-836
1657302403535,-614,389,-875
1657302403575,-666,274,-775
1657302403615,-792,490,-717
1657302403655,-778,706,-912
1657302403695,-676,432,-630
1657302403735,-422,360,-783
1657302403775,-434,356,-681
1657302403815,-458,404,-781
1657302403855,-458,382,-709
1657302403895,-386,389,-766
1657302403935,-422,425,-773
1657302403975,-444,393,-795
1657302404015,-471,439,-789
1657302404055,-444,433,-922
1657302404095,-584,550,-878
1657302404135,-495,756,-989
1657302404175,-523,775,-854
1657302404215,-495,752,-701
1657302404255,-292,572,-661
1657302404295,-266,422,-579
1657302404335,-378,460,-663
1657302404375,-427,426,-651
1657302404415,-485,541,-700
1657302404455,-406,302,-633
1657302404495,-451,306,-649
1657302404535,-473,416,-816
1657302404575,-570,554,-887
1657302404615,-591,601,-965
1657302404655,-559,576,-977
1657302404695,-656,471,-777
1657302404735,-722,617,-738
1657302404775,-686,704,-680
1657302404815,-634,706,-620
1657302404855,-491,668,-691
1657302404895,-421,544,-650
1657302404935,-354,511,-651
1657302404975,-368,420,-608
1657302405015,-471,548,-642
1657302405055,-474,497,-563
1657302405095,-372,384,-499
1657302405135,-370,438,-510
1657302405175,-340,489,-560
1657302405215,-250,606,-499
1657302405255,-87,629,-446
1657302405295,24,643,-232
1657302405335,49,868,-232
1657302405375,184,930,-141
1657302405415,256,1088,47
1657302405455,286,1241,417
1657302405495,-19,1831,687
1657302405535,-348,1912,755
1657302405575,-558,1713,771
1657302405615,-413,1477,497
1657302405655,-390,1326,330
1657302405695,-354,1236,198
1657302405735,-240,1227,132
1657302405775,-316,1341,93
1657302405815,-295,1361,122
1657302405855,-291,1253,255
1657302405895,-348,1316,324
1657302405935,-266,1499,375
1657302405975,-197,1574,424
1657302406015,-193,1470,660
1657302406055,-291,1586,794
1657302406095,95,1261,771
1657302406135,247,814,654
1657302406175,6,727,350
1657302406215,139,507,168
1657302406255,226,390,28
1657302406295,248,384,10
1657302406335,299,676,19
1657302406375,243,972,-72
1657302406415,373,1220,47
1657302406455,275,1578,572
1657302406495,-161,1771,869
1657302406535,-551,1867,873
1657302406575,-605,1486,727
1657302406615,-534,1225,519
1657302406655,-482,1002,334
1657302406695,-524,932,197
1657302406735,-430,833,141
1657302406775,-361,798,130
1657302406815,-330,786,86
1657302406855,-315,871,266
1657302406895,-425,1086,373
1657302406935,-456,1398,428
1657302406975,-658,1619,437
1657302407015,-721,1587,403
1657302407055,-321,1359,482
1657302407095,-195,1154,518
1657302407135,-390,1148,530
1657302407175,-370,1015,490
1657302407215,-376,860,461
1657302407255,-298,720,305
1657302407295,-325,581,265
1657302407335,-651,226,901
1657302407375,-501,293,986
1657302407415,-369,10,512
1657302407455,-492,-69,530
1657302407495,-631,-96,601
1657302407535,-697,-20,476
1657302407575,-730,-148,597
1657302407615,-757,-266,686
1657302407655,-770,-253,724
1657302407695,-666,-287,766
1657302407735,-626,-351,921
1657302407775,-558,-332,766
1657302407815,-556,-259,585
1657302407855,-621,-195,426
1657302407895,-733,-227,360
1657302407935,-933,-196,309
1657302407975,-1025,-62,148
1657302408015,-1083,33,-123
1657302408055,-951,85,-396
1657302408095,-1029,171,-525
1657302408135,-1133,330,-493
1657302408175,-760,267,-581
1657302408215,-370,297,-802
1657302408255,-81,376,-950
1657302408295,-29,357,-985
1657302408335,-43,290,-839
1657302408375,-80,245,-793
1657302408415,15,194,-682
1657302408455,82,209,-624
1657302408495,1,251,-517
1657302408535,15,424,-553
1657302408575,243,472,-716
1657302408615,226,732,-335
1657302408655,-19,1253,-71
1657302408695,-138,1152,195
1657302408735,-103,1259,517
1657302408775,-6,1636,488
1657302408815,64,1682,709
1657302408855,-79,1535,1093
1657302408895,-355,1366,1161
1657302408935,-292,1413,773
1657302408975,-276,1459,507
1657302409015,-174,1537,165
1657302409055,-317,1634,-71
1657302409095,-251,1603,-93
1657302409135,-116,1497,135
1657302409175,-327,1337,272
1657302409215,-494,1198,158
1657302409255,-186,1193,243
1657302409295,-20,1249,349
1657302409335,10,1209,419
1657302409375,-33,1211,629
1657302409415,-56,1070,742
1657302409455,87,987,663
1657302409495,157,903,540
1657302409535,96,849,465
1657302409575,119,887,457
1657302409615,259,1013,425
1657302409655,312,1025,269
1657302409695,483,1017,209
1657302409735,484,976,203
1657302409775,131,1097,361
1657302409815,-9,1175,397
1657302409855,-39,1137,419
1657302409895,-157,1005,451
1657302409935,-204,978,432
1657302409975,-221,1058,358
1657302410015,-210,1149,288
1657302410055,-229,1235,269
1657302410095,-268,1205,222
1657302410135,-274,1185,223
1657302410175,-166,1180,196
1657302410215,-148,1225,207
1657302410255,-100,1255,324
1657302410295,-255,1167,314
1657302410335,-253,1321,269
1657302410375,-73,1337,377
1657302410415,-12,1275,576
1657302410455,51,1089,804
1657302410495,115,927,809
1657302410535,112,894,572
1657302410575,147,824,444
1657302410615,192,778,352
1657302410655,157,774,232
1657302410695,163,815,239
1657302410735,269,946,316
1657302410775,377,983,318
1657302410815,371,992,369
1657302410855,164,1011,399
1657302410895,-38,1171,381
1657302410935,-89,1322,341
1657302410975,-163,1299,347
1657302411015,-246,1125,419
1657302411055,-278,959,413
1657302411095,-180,919,310
1657302411135,-85,931,276
1657302411175,-124,975,235
1657302411215,-198,1013,156
1657302411255,-192,1104,161
1657302411295,-136,1309,159
1657302411335,-116,1493,182
1657302411375,-170,1416,405
1657302411415,-313,1278,365
1657302411455,-281,1390,405
1657302411495,-122,1316,491
1657302411535,-7,1123,668
1657302411575,85,897,793
1657302411615,145,809,650
1657302411655,171,794,506
1657302411695,186,765,395
1657302411735,172,775,305
1657302411775,189,855,286
1657302411815,255,916,262
1657302411855,373,1013,240
1657302411895,508,1147,235
1657302411935,437,1175,378
1657302411975,108,1178,605
1657302412015,-131,1238,592
1657302412055,-110,1222,417
1657302412095,-123,1102,360
1657302412135,-190,1030,310
1657302412175,-201,1045,252
1657302412215,-219,1076,184
1657302412255,-247,1074,170
1657302412295,-230,1051,172
1657302412335,-185,1108,242
1657302412375,-200,1153,242
1657302412415,-116,1374,261
1657302412455,-111,1439,339
1657302412495,-275,1431,228
1657302412535,-79,1305,448
1657302412575,35,1196,599
1657302412615,-10,1051,571
1657302412655,50,1006,588
1657302412695,174,934,484
1657302412735,228,885,426
1657302412775,219,823,375
1657302412815,214,774,372
1657302412855,260,795,370
1657302412895,405,915,318
1657302412935,391,967,222
1657302412975,376,1164,166
1657302413015,247,1259,239
1657302413055,126,1278,423
1657302413095,193,1265,435
1657302413135,86,1200,384
1657302413175,-132,1126,367
1657302413215,-220,1039,315
1657302413255,-168,996,257
1657302413295,-107,994,245
1657302413335,-116,983,225
1657302413375,-178,1033,241
1657302413415,-193,1176,296
1657302413455,-168,1312,311
1657302413495,45,1363,401
1657302413535,-64,1161,396
1657302413575,-105,1123,295
1657302413615,32,1180,371
1657302413655,11,1197,508
1657302413695,22,1117,597
1657302413735,28,1037,594
1657302413775,68,1024,514
1657302413815,141,960,356
1657302413855,183,870,356
1657302413895,201,786,318
1657302413935,219,795,337
1657302413975,300,838,303
1657302414015,397,952,265
1657302414055,422,1082,262
1657302414095,290,1184,320
1657302414135,78,1286,451
1657302414175,-45,1334,514
1657302414215,-162,1297,287
1657302414255,-195,1105,213
1657302414295,-247,910,278
1657302414335,-280,814,257
1657302414375,-248,807,245
1657302414415,-286,923,174
1657302414455,-369,1033,143
1657302414495,-304,1148,283
1657302414535,-160,1189,519
1657302414575,-125,1229,655
1657302414615,-25,1231,613
1657302414655,-186,1295,425
1657302414695,-112,1370,386
1657302414735,7,1235,574
1657302414775,-66,1047,585
1657302414815,-40,929,423
1657302414855,52,860,404
1657302414895,131,745,316
1657302414935,199,768,383
1657302414975,236,677,381
1657302415015,234,775,370
1657302415055,388,891,439
1657302415095,381,879,498
1657302415135,512,1200,693
1657302415175,375,1089,832
1657302415215,3,886,942
1657302415255,-35,1016,803
1657302415295,97,788,750
1657302415335,-22,685,798
1657302415375,-63,651,606
1657302415415,10,715,546
1657302415455,-2,732,561
1657302415495,-71,783,619
1657302415535,-167,865,694
1657302415575,-191,973,548
1657302415615,-198,1223,409
1657302415655,-106,1307,540
1657302415695,-249,1279,539
1657302415735,-278,1319,434
1657302415775,-56,1249,531
1657302415815,-61,1296,545
1657302415855,-59,1163,481
1657302415895,9,1049,578
1657302415935,114,934,582
1657302415975,159,813,505
1657302416015,161,776,436
1657302416055,181,751,361
1657302416095,214,845,331
1657302416135,293,970,132
1657302416175,588,1317,-146
1657302416215,67,1011,44
1657302416255,38,993,512
1657302416295,62,1039,451
1657302416335,14,1184,402
1657302416375,-70,1151,363
1657302416415,-197,1028,389
1657302416455,-302,1034,411
1657302416495,-264,1074,468
1657302416535,-202,1035,421
1657302416575,-185,1135,585
1657302416615,-228,946,418
1657302416655,-177,1086,630
1657302416695,-187,1086,694
1657302416735,-87,1130,845
1657302416775,-184,1003,747
1657302416815,-192,1011,769
1657302416855,-78,819,765
1657302416895,35,945,1044
1657302416935,115,929,1225
1657302416975,-32,537,1153
1657302417015,47,467,1060
1657302417055,43,421,976
1657302417095,98,433,818
1657302417135,145,461,707
1657302417175,175,476,604
1657302417215,249,550,597
1657302417255,361,668,566
1657302417295,445,837,543
1657302417335,374,972,502
1657302417375,246,1052,561
1657302417415,42,1051,716
1657302417455,74,1181,799
1657302417495,-57,1263,726
1657302417535,-278,1206,630
1657302417575,-364,1134,451
1657302417615,-252,1042,368
1657302417655,-187,1013,375
1657302417695,-133,967,347
1657302417735,-86,977,344
1657302417775,-86,1054,337
1657302417815,-62,1171,359
1657302417855,-27,1254,404
1657302417895,-101,1192,491
1657302417935,-215,1155,362
1657302417975,-124,1192,321
1657302418015,-3,1166,531
1657302418055,-52,1119,571
1657302418095,-65,1023,613
1657302418135,22,988,581
1657302418175,74,935,536
1657302418215,94,895,498
1657302418255,126,832,467
1657302418295,167,800,420
1657302418335,262,807,402
1657302418375,402,868,341
1657302418415,524,1032,243
1657302418455,422,1060,252
1657302418495,115,1057,411
1657302418535,-6,1184,435
1657302418575,-61,1262,329
1657302418615,-124,1133,381
1657302418655,-124,959,432
1657302418695,-134,882,348
1657302418735,-127,878,312
1657302418775,-135,939,278
1657302418815,-166,1017,271
1657302418855,-198,1123,264
1657302418895,-186,1268,273
1657302418935,-165,1297,310
1657302418975,-75,1295,405
1657302419015,-87,1283,420
1657302419055,-157,1427,286
1657302419095,-205,1300,196
1657302419135,-138,1196,357
1657302419175,-8,1087,524
1657302419215,5,1040,509
1657302419255,65,978,532
1657302419295,113,928,535
1657302419335,89,893,519
1657302419375,88,866,453
1657302419415,117,806,411
1657302419455,255,789,408
1657302419495,453,817,343
1657302419535,573,871,299
1657302419575,326,1046,270
1657302419615,40,1170,283
1657302419655,5,1248,344
1657302419695,-49,1202,381
1657302419735,-135,1068,407
1657302419775,-163,932,393
1657302419815,-194,866,316
1657302419855,-163,948,219
1657302419895,-196,1090,210
1657302419935,-227,1176,124
1657302419975,-265,1219,90
1657302420015,-154,1334,171
1657302420055,-137,1383,311
1657302420095,-124,1402,451
1657302420135,-237,1254,468
1657302420175,-326,1139,237
1657302420215,-55,1182,297
1657302420255,115,1230,379
1657302420295,10,1169,429
1657302420335,-72,1047,558
1657302420375,-40,904,627
1657302420415,27,826,597
1657302420455,111,826,513
1657302420495,123,849,413
1657302420535,179,861,346
1657302420575,492,856,327
1657302420615,646,845,242
1657302420655,587,1076,261
1657302420695,256,1229,304
1657302420735,-57,1212,385
1657302420775,-113,1276,352
1657302420815,-106,1398,197
1657302420855,-113,1071,389
1657302420895,-208,982,400
1657302420935,-195,954,323
1657302420975,-124,952,307
1657302421015,-95,972,284
1657302421055,-92,957,212
1657302421095,-79,1080,232
1657302421135,-62,1224,236
1657302421175,-57,1373,314
1657302421215,-161,1372,398
1657302421255,-369,1292,267
1657302421295,-173,1343,374
1657302421335,5,1251,460
1657302421375,135,1019,544
1657302421415,135,949,731
1657302421455,160,836,642
1657302421495,215,708,590
1657302421535,318,662,487
1657302421575,403,715,387
1657302421615,409,782,413
1657302421655,507,844,534
1657302421695,289,1157,671
1657302421735,34,1430,643
1657302421775,-285,1727,803
1657302421815,-744,1859,339
1657302421855,-14,1228,-1011
1657302421895,-267,1426,136
1657302421935,-215,1315,167
1657302421975,-210,952,608
1657302422015,49,816,483
1657302422055,-218,1483,911
1657302422095,-129,542,1607
1657302422135,52,572,-116
1657302422175,833,83,-1117
1657302422215,-36,936,-824
1657302422255,-597,1085,-188
1657302422295,-432,714,72
1657302422335,-81,1096,559
1657302422375,-567,1459,861
1657302422415,-236,1356,546
1657302422455,-1262,1082,-1451
1657302422495,-555,942,83
1657302422535,524,961,1362
1657302422575,-372,612,114
1657302422615,-959,906,189
1657302422655,-244,693,527
1657302422695,-393,705,645
1657302422735,-561,674,926
1657302422775,-611,716,1113
1657302422815,-608,666,816
1657302422855,-307,809,970
1657302422895,-282,868,369
1657302422935,-413,762,275
1657302422975,-512,525,624
1657302423015,-337,430,341
1657302423055,-318,520,135
1657302423095,-468,569,292
1657302423135,-751,743,522
1657302423175,-588,632,414
1657302423215,-656,479,403
1657302423255,-887,576,516
1657302423295,-845,563,569
1657302423335,-641,690,524
1657302423375,-125,905,558
1657302423415,-407,1076,954
1657302423455,-272,1008,532
1657302423495,-473,1155,642
1657302423535,-519,818,390
1657302423575,-1011,1086,272
1657302423615,-698,977,-89
1657302423655,-386,873,78
1657302423695,-228,868,271
1657302423735,100,840,411
1657302423775,402,747,506
1657302423815,364,736,574
1657302423855,-224,1158,637
1657302423895,-205,1137,442
1657302423935,-375,1327,339
1657302423975,-560,1458,31
1657302424015,-695,1287,-307
1657302424055,-391,1103,-291
1657302424095,-177,782,-200
1657302424135,-158,645,-101
1657302424175,-184,514,125
1657302424215,-207,641,11
1657302424255,-378,702,53
1657302424295,-614,837,226
1657302424335,-763,1023,419
1657302424375,-827,1046,518
1657302424415,-669,1152,317
1657302424455,-403,971,-57
1657302424495,-127,960,434
1657302424535,-321,1132,407
1657302424575,-636,1020,435
1657302424615,-459,943,427
1657302424655,-471,810,322
1657302424695,-330,720,258
1657302424735,-252,681,242
1657302424775,-148,741,252
1657302424815,-20,836,264
1657302424855,57,966,328
1657302424895,218,1176,321
1657302424935,325,1333,217
1657302424975,353,1328,184
1657302425015,279,1208,346
1657302425055,53,1161,398
1657302425095,36,1128,277
1657302425135,102,982,271
1657302425175,-5,822,344
1657302425215,-95,816,337
1657302425255,-93,889,269
1657302425295,-132,995,292
1657302425335,-167,1109,273
1657302425375,-201,1127,225
1657302425415,-141,1150,218
1657302425455,-44,1232,255
1657302425495,-53,1323,255
1657302425535,-118,1310,316
1657302425575,-208,1186,200
1657302425615,-108,1100,285
1657302425655,-51,1113,378
1657302425695,-152,1194,396
1657302425735,-139,1202,483
1657302425775,-57,1110,559
1657302425815,105,1037,526
1657302425855,182,931,468
1657302425895,167,825,452
1657302425935,132,787,424
1657302425975,227,805,394
1657302426015,359,903,371
1657302426055,502,1029,229
1657302426095,546,1146,185
1657302426135,334,1161,259
1657302426175,32,1222,375
1657302426215,-53,1262,320
1657302426255,-53,1154,279
1657302426295,-62,975,337
1657302426335,-126,908,264
1657302426375,-127,931,226
1657302426415,-113,971,226
1657302426455,-142,1038,238
1657302426495,-197,1118,241
1657302426535,-205,1217,170
1657302426575,-118,1263,264
1657302426615,-44,1354,367
1657302426655,-29,1304,468
1657302426695,-256,1208,312
1657302426735,-114,1203,243
1657302426775,-51,1096,360
1657302426815,-77,1102,304
1657302426855,-16,1043,345
1657302426895,42,961,443
1657302426935,127,864,461
1657302426975,128,820,476
1657302427015,107,864,478
1657302427055,161,932,464
1657302427095,343,1043,533
1657302427135,535,1085,436
1657302427175,502,1134,304
1657302427215,589,1154,360
1657302427255,5,1253,440
1657302427295,-123,1273,276
1657302427335,-325,1454,97
1657302427375,-410,1441,390
1657302427415,-354,1339,113
1657302427455,44,1117,236
1657302427495,-116,1082,109
1657302427535,54,1027,776
1657302427575,-399,1241,1439
1657302427615,-3,1121,1730
1657302427655,889,216,175
1657302427695,746,127,-954
1657302427735,319,489,-715
1657302427775,-20,964,-95
1657302427815,-571,1157,-37
1657302427855,-250,1174,878
1657302427895,-342,1261,287
1657302427935,1409,401,-1059
1657302427975,-203,1286,295
1657302428015,537,903,244
1657302428055,-865,1010,611
1657302428095,30,488,538
1657302428135,-355,899,471
1657302428175,-414,833,767
1657302428215,-229,777,856
1657302428255,-360,782,859
1657302428295,-521,796,1187
1657302428335,-408,716,806
1657302428375,-346,946,351
1657302428415,-302,856,329
1657302428455,-497,797,391
1657302428495,-461,572,389
1657302428535,-391,440,190
1657302428575,-364,451,237
1657302428615,-551,562,454
1657302428655,-592,622,486
1657302428695,-678,620,495
1657302428735,-757,609,585
1657302428775,-676,702,622
1657302428815,-461,882,481
1657302428855,-375,1193,460
1657302428895,-627,1348,724
1657302428935,-697,968,675
1657302428975,-591,901,616
1657302429015,-617,772,509
1657302429055,-678,531,409
1657302429095,-500,424,103
1657302429135,-429,431,-23
1657302429175,-444,428,23
1657302429215,-413,643,4
1657302429255,-425,677,168
1657302429295,-189,817,163
1657302429335,68,1032,20
1657302429375,284,1468,-234
1657302429415,119,1474,-11
1657302429455,-104,1350,74
1657302429495,-195,1141,217
1657302429535,-170,1062,327
1657302429575,-255,1093,527
1657302429615,-593,1226,553
1657302429655,-484,1142,410
1657302429695,-301,1060,239
1657302429735,-301,1137,167
1657302429775,-444,1257,-13
1657302429815,-325,1353,88
1657302429855,-452,1335,318
1657302429895,-232,1223,381
1657302429935,-182,1091,261
1657302429975,-334,874,448
1657302430015,-394,795,770
1657302430055,-370,931,842
1657302430095,-315,1029,623
1657302430135,-275,1065,473
1657302430175,-217,1019,394
1657302430215,-106,941,376
1657302430255,-38,909,344
1657302430295,22,891,272
1657302430335,58,866,231
1657302430375,188,886,210
1657302430415,350,891,162
1657302430455,404,1064,107
1657302430495,347,1089,136
1657302430535,152,1068,314
1657302430575,36,1182,462
1657302430615,-35,1493,420
1657302430655,-173,1549,419
1657302430695,-380,1278,551
1657302430735,-460,1117,396
1657302430775,-293,1049,185
1657302430815,-203,980,177
1657302430855,-112,969,76
1657302430895,-80,997,-5
1657302430935,-108,1097,54
1657302430975,-102,1277,202
1657302431015,-147,1493,334
1657302431055,-237,1462,506
1657302431095,-305,1341,216
1657302431135,-35,1276,315
1657302431175,96,1159,481
1657302431215,42,1020,499
1657302431255,-43,956,489
1657302431295,-93,977,486
1657302431335,-4,924,431
1657302431375,67,810,387
1657302431415,103,739,351
1657302431455,146,732,318
1657302431495,267,836,292
1657302431535,374,946,217
1657302431575,412,1109,137
1657302431615,298,1191,167
1657302431655,104,1191,323
1657302431695,-25,1226,431
1657302431735,-115,1247,378
1657302431775,-186,1161,340
1657302431815,-225,998,339
1657302431855,-238,959,239
1657302431895,-237,980,202
1657302431935,-200,1040,167
1657302431975,-170,1104,170
1657302432015,-170,1132,89
1657302432055,-125,1169,89
1657302432095,-12,1217,177
1657302432135,0,1349,248
1657302432175,-94,1417,288
1657302432215,-238,1265,286
1657302432255,-134,1218,336
1657302432295,-44,1143,428
1657302432335,-35,1077,473
1657302432375,-12,976,465
1657302432415,40,888,437
1657302432455,88,838,400
1657302432495,88,832,304
1657302432535,147,762,356
1657302432575,180,798,312
1657302432615,248,944,291
1657302432655,351,1083,208
1657302432695,361,1199,141
1657302432735,258,1139,194
1657302432775,-9,1138,323
1657302432815,-67,1228,263
1657302432855,-51,1246,185
1657302432895,-147,1093,294
1657302432935,-217,955,314
1657302432975,-200,918,260
1657302433015,-173,895,259
1657302433055,-164,933,248
1657302433095,-118,1012,210
1657302433135,-73,1102,151
1657302433175,-42,1245,77
1657302433215,-13,1266,113
1657302433255,23,1310,255
1657302433295,-153,1238,236
1657302433335,-251,1269,131
1657302433375,-84,1243,266
1657302433415,-84,1221,399
1657302433455,-108,1091,478
1657302433495,-74,959,531
1657302433535,13,899,449
1657302433575,65,866,389
1657302433615,134,823,388
1657302433655,169,795,356
1657302433695,181,827,360
1657302433735,277,1009,332
1657302433775,361,1121,233
1657302433815,469,1160,219
1657302433855,373,1025,323
1657302433895,134,1004,373
1657302433935,23,1149,297
1657302433975,-4,1168,255
1657302434015,-84,1038,316
1657302434055,-236,969,364
1657302434095,-254,971,264
1657302434135,-159,1002,154
1657302434175,-109,1060,72
1657302434215,-144,1078,47
1657302434255,-204,1110,133
1657302434295,-146,1215,197
1657302434335,-147,1351,259
1657302434375,-94,1392,372
1657302434415,-323,1266,261
1657302434455,-196,1347,306
1657302434495,-68,1350,457
1657302434535,-67,1300,535
1657302434575,-50,1123,527
1657302434615,44,1010,563
1657302434655,147,906,509
1657302434695,205,799,428
1657302434735,210,673,328
1657302434775,176,637,291
1657302434815,264,704,297
1657302434855,361,907,259
1657302434895,415,1138,145
1657302434935,385,1237,78
1657302434975,194,1252,275
1657302435015,20,1307,440
1657302435055,-79,1397,344
1657302435095,-206,1247,290
1657302435135,-273,1012,306
1657302435175,-265,919,205
1657302435215,-212,895,211
1657302435255,-183,941,259
1657302435295,-179,1019,205
1657302435335,-222,1033,182
1657302435375,-161,1096,211
1657302435415,-62,1213,215
1657302435455,-47,1367,261
1657302435495,-37,1490,149
1657302435535,-191,1239,190
1657302435575,-263,1132,464
1657302435615,-77,1110,520
1657302435655,-75,1069,486
1657302435695,-83,1004,497
1657302435735,-55,986,708
1657302435775,52,1026,372
1657302435815,-10,946,263
1657302435855,-14,863,349
1657302435895,111,762,303
1657302435935,273,784,317
1657302435975,293,868,243
1657302436015,373,1041,328
1657302436055,299,1034,306
1657302436095,12,1143,348
1657302436135,33,1118,422
1657302436175,0,1126,406
1657302436215,-121,1086,469
1657302436255,-110,838,542
1657302436295,-172,796,530
1657302436335,-149,867,453
1657302436375,-106,946,441
1657302436415,-145,1023,388
1657302436455,-140,1040,350
1657302436495,-59,1182,418
1657302436535,-80,1216,387
1657302436575,-28,1312,478
1657302436615,-204,1218,373
1657302436655,-222,1255,267
1657302436695,-75,1244,328
1657302436735,-111,1192,395
1657302436775,-89,1057,463
1657302436815,-42,931,525
1657302436855,55,876,506
1657302436895,104,799,469
1657302436935,119,782,430
1657302436975,156,791,393
1657302437015,210,877,383
1657302437055,332,948,305
1657302437095,441,1033,251
1657302437135,378,1025,275
1657302437175,193,1023,260
1657302437215,10,1104,310
1657302437255,-11,1206,347
1657302437295,-52,1219,358
1657302437335,-177,1071,443
1657302437375,-281,975,343
1657302437415,-246,947,218
1657302437455,-167,942,198
1657302437495,-113,977,200
1657302437535,-111,1002,209
1657302437575,-126,999,222
1657302437615,-10,1131,298
1657302437655,-32,1248,297
1657302437695,-33,1281,415
1657302437735,-133,1178,412
1657302437775,-170,1205,239
1657302437815,-84,1211,254
1657302437855,-121,1199,343
1657302437895,-107,1116,412
1657302437935,-57,984,474
1657302437975,19,935,473
1657302438015,98,864,466
1657302438055,107,805,419
1657302438095,89,756,351
1657302438135,117,757,306
1657302438175,244,845,316
1657302438215,387,944,267
1657302438255,404,1120,263
1657302438295,286,1159,273
1657302438335,45,1081,312
1657302438375,-51,1155,360
1657302438415,-47,1273,334
1657302438455,-135,1268,392
1657302438495,-229,1015,461
1657302438535,-290,878,358
1657302438575,-212,863,166
1657302438615,-117,948,129
1657302438655,-125,1014,86
1657302438695,-151,1051,181
1657302438735,-67,1115,333
1657302438775,-82,1199,397
1657302438815,0,1325,391
1657302438855,-76,1237,395
1657302438895,-173,1395,95
1657302438935,-107,1388,250
1657302438975,-115,1247,451
1657302439015,-137,1051,470
1657302439055,-85,914,423
1657302439095,38,846,295
1657302439135,125,767,240
1657302439175,156,687,224
1657302439215,161,695,266
1657302439255,174,724,336
1657302439295,172,864,357
1657302439335,244,1002,391
1657302439375,315,1142,390
1657302439415,200,1257,330
1657302439455,-29,1217,307
1657302439495,-72,1229,389
1657302439535,-96,1297,215
1657302439575,-203,1169,236
1657302439615,-184,916,308
1657302439655,-158,850,187
1657302439695,-111,850,105
1657302439735,-102,896,158
1657302439775,-133,989,180
1657302439815,-152,1066,190
1657302439855,-115,1157,210
1657302439895,-39,1225,240
1657302439935,33,1344,387
1657302439975,-12,1384,408
1657302440015,-319,1213,142
1657302440055,-236,1082,238
1657302440095,-49,1057,364
1657302440135,-78,1061,351
1657302440175,-95,992,418
1657302440215,-64,938,433
1657302440255,2,911,420
1657302440295,71,878,429
1657302440335,80,799,400
1657302440375,95,733,337
1657302440415,230,753,326
1657302440455,348,894,296
1657302440495,329,1121,269
1657302440535,216,1228,315
1657302440575,58,1169,307
1657302440615,-105,1141,407
1657302440655,-184,1257,298
1657302440695,-199,1212,200
1657302440735,-204,993,314
1657302440775,-180,861,234
1657302440815,-139,826,178
1657302440855,-98,867,215
1657302440895,-106,918,252
1657302440935,-148,983,257
1657302440975,-139,1069,282
1657302441015,-102,1218,266
1657302441055,-78,1391,250
1657302441095,-45,1426,393
1657302441135,-315,1279,263
1657302441175,-283,1175,263
1657302441215,-58,1158,321
1657302441255,0,1075,302
1657302441295,-20,927,410
1657302441335,12,780,471
1657302441375,68,766,418
1657302441415,65,795,363
1657302441455,67,810,414
1657302441495,98,838,454
1657302441535,157,953,467
1657302441575,287,1037,415
1657302441615,322,1044,301
1657302441655,384,969,242
1657302441695,332,1007,201
1657302441735,119,1133,484
1657302441775,-3,1237,525
1657302441815,-151,1178,449
1657302441855,-169,1032,267
1657302441895,-178,917,168
1657302441935,-111,894,135
1657302441975,-109,910,170
1657302442015,-108,961,194
1657302442055,-159,1083,158
1657302442095,-156,1307,150
1657302442135,-140,1395,267
1657302442175,-23,1444,500
1657302442215,-86,1190,472
1657302442255,-158,1147,368
1657302442295,-50,1156,385
1657302442335,-59,1124,371
1657302442375,-46,1006,414
1657302442415,-20,907,414
1657302442455,32,814,402
1657302442495,95,749,393
1657302442535,115,700,382
1657302442575,127,715,400
1657302442615,217,823,434
1657302442655,314,1013,401
1657302442695,385,1146,333
1657302442735,359,1172,291
1657302442775,90,1232,320
1657302442815,-149,1198,406
1657302442855,-224,1179,253
1657302442895,-178,1024,126
1657302442935,-134,887,105
1657302442975,-107,827,127
1657302443015,-100,860,188
1657302443055,-76,951,233
1657302443095,-110,1033,218
1657302443135,-130,1025,252
1657302443175,-68,1176,296
1657302443215,-91,1199,248
1657302443255,-53,1247,356
1657302443295,-126,1198,375
1657302443335,-274,1233,194
1657302443375,-152,1242,211
1657302443415,-124,1164,323
1657302443455,-127,1046,398
1657302443495,-111,920,431
1657302443535,-31,878,382
1657302443575,45,834,378
1657302443615,59,782,390
1657302443655,98,794,415
1657302443695,165,839,384
1657302443735,358,1026,442
1657302443775,513,1095,400
1657302443815,566,1097,413
1657302443855,227,1015,434
1657302443895,-8,1015,456
1657302443935,86,1136,385
1657302443975,73,1017,484
1657302444015,-77,857,523
1657302444055,-112,868,456
1657302444095,-71,794,456
1657302444135,-5,809,538
1657302444175,-30,818,538
1657302444215,-57,868,561
1657302444255,-75,1070,670
1657302444295,-63,1248,725
1657302444335,-63,1233,906
1657302444375,-366,1141,677
1657302444415,-224,1066,556
1657302444455,-32,1006,612
1657302444495,-29,1061,535
1657302444535,-31,934,660
1657302444575,-21,826,772
1657302444615,31,757,817
1657302444655,102,798,786
1657302444695,139,703,776
1657302444735,241,603,770
1657302444775,462,576,702
1657302444815,619,569,592
1657302444855,721,781,588
1657302444895,584,719,588
1657302444935,343,1003,790
1657302444975,145,1178,701
1657302445015,33,1358,398
1657302445055,17,1144,320
1657302445095,-222,892,383
1657302445135,-166,886,415
1657302445175,-152,913,450
1657302445215,-140,914,498
1657302445255,-166,957,535
1657302445295,-192,1041,510
1657302445335,-153,1114,522
1657302445375,-138,1147,531
1657302445415,29,1281,626
1657302445455,-157,1240,452
1657302445495,-150,1177,461
1657302445535,-41,1206,579
1657302445575,-77,1148,499
1657302445615,-55,971,579
1657302445655,23,857,615
1657302445695,91,803,551
1657302445735,168,753,481
1657302445775,220,764,445
1657302445815,199,831,404
1657302445855,263,940,399
1657302445895,420,953,396
1657302445935,626,1052,436
1657302445975,497,992,508
1657302446015,219,1100,623
1657302446055,69,1261,529
1657302446095,-8,1160,382
1657302446135,-87,999,275
1657302446175,-136,961,207
1657302446215,-174,972,190
1657302446255,-163,1048,173
1657302446295,-140,1112,227
1657302446335,-151,1110,305
1657302446375,-168,1060,328
1657302446415,-143,1122,338
1657302446455,-124,1297,313
1657302446495,-43,1418,428
1657302446535,-332,1283,345
1657302446575,-263,1286,354
1657302446615,-55,1215,458
1657302446655,-71,1099,470
1657302446695,24,1001,473
1657302446735,88,932,427
1657302446775,119,854,491
1657302446815,212,821,514
1657302446855,251,820,485
1657302446895,159,884,468
1657302446935,303,930,424
1657302446975,379,864,331
1657302447015,494,855,273
1657302447055,419,1060,251
1657302447095,218,1164,246
1657302447135,35,1334,368
1657302447175,-119,1316,340
1657302447215,-190,1169,393
1657302447255,-288,1102,319
1657302447295,-385,1075,288
1657302447335,-238,941,180
1657302447375,-179,839,122
1657302447415,-218,770,118
1657302447455,-254,749,143
1657302447495,-185,864,205
1657302447535,-156,1120,182
1657302447575,-146,1319,316
1657302447615,-271,1294,514
1657302447655,-453,1421,470
1657302447695,-309,1514,375
1657302447735,-174,1426,459
1657302447775,-94,1237,528
1657302447815,-25,1073,524
1657302447855,104,954,514
1657302447895,181,828,472
1657302447935,205,725,376
1657302447975,190,630,272
1657302448015,162,469,267
1657302448055,157,582,180
1657302448095,224,900,58
1657302448135,263,1154,121
1657302448175,381,1293,357
1657302448215,321,1344,556
1657302448255,70,1237,706
1657302448295,-105,1221,816
1657302448335,-111,1264,613
1657302448375,-128,1160,435
1657302448415,-197,1016,405
1657302448455,-196,984,299
1657302448495,-163,980,262
1657302448535,-178,1014,250
1657302448575,-185,983,232
1657302448615,-147,983,233
1657302448655,-56,1048,244
1657302448695,-86,1144,219
1657302448735,-38,1212,284
1657302448775,52,1372,418
1657302448815,-140,1432,289
1657302448855,-270,1439,121
1657302448895,-105,1489,220
1657302448935,8,1400,452
1657302448975,42,1248,668
1657302449015,86,1140,756
1657302449055,166,1056,738
1657302449095,94,893,802
1657302449135,192,805,741
1657302449175,282,828,480
1657302449215,339,751,230
1657302449255,380,649,289
1657302449295,476,630,310
1657302449335,523,783,376
1657302449375,363,930,527
1657302449415,276,1123,690
1657302449455,204,1356,736
1657302449495,7,1451,727
1657302449535,-251,1296,707
1657302449575,-333,1251,523
1657302449615,-310,1242,286
1657302449655,-185,1183,166
1657302449695,-167,1115,195
1657302449735,-166,1070,173
1657302449775,-134,1145,217
1657302449815,-145,1270,246
1657302449855,-128,1295,420
1657302449895,-212,1221,516
1657302449935,-292,1178,460
1657302449975,-145,1342,435
1657302450015,-59,1443,420
1657302450055,-2,1410,578
1657302450095,32,1245,640
1657302450135,96,1084,658
1657302450175,166,956,614
1657302450215,198,856,526
1657302450255,200,763,476
1657302450295,248,700,409
1657302450335,307,660,335
1657302450375,413,723,270
1657302450415,408,887,220
1657302450455,430,1037,131
1657302450495,299,1144,332
1657302450535,171,1277,505
1657302450575,52,1535,534
1657302450615,-204,1541,494
1657302450655,-312,1328,401
1657302450695,-366,1165,204
1657302450735,-228,1072,200
1657302450775,-127,1015,234
1657302450815,-103,1028,242
1657302450855,-151,1038,222
1657302450895,-142,1096,333
1657302450935,-252,1215,219
1657302450975,-231,1287,323
1657302451015,-243,1353,353
1657302451055,-298,1481,266
1657302451095,-154,1522,435
1657302451135,-44,1503,594
1657302451175,6,1330,660
1657302451215,150,1185,706
1657302451255,266,1041,636
1657302451295,282,891,541
1657302451335,251,752,466
1657302451375,231,675,383
1657302451415,266,728,348
1657302451455,432,774,262
1657302451495,512,887,125
1657302451535,376,1117,119
1657302451575,283,1164,294
1657302451615,104,1217,461
1657302451655,17,1359,464
1657302451695,-86,1328,431
1657302451735,-222,1249,402
1657302451775,-337,1241,323
1657302451815,-356,1214,263
1657302451855,-275,1183,242
1657302451895,-238,1113,249
1657302451935,-207,1053,228
1657302451975,-114,1097,272
1657302452015,-106,1151,301
1657302452055,-91,1255,358
1657302452095,-185,1211,333
1657302452135,-248,1293,212
1657302452175,-90,1367,346
1657302452215,-17,1266,431
1657302452255,0,1143,480
1657302452295,25,1042,443
1657302452335,71,938,428
1657302452375,168,864,458
1657302452415,237,777,439
1657302452455,139,699,406
1657302452495,185,707,359
1657302452535,345,776,347
1657302452575,385,986,304
1657302452615,415,1228,238
1657302452655,266,1248,379
1657302452695,2,1282,369
1657302452735,-71,1368,269
1657302452775,-69,1265,227
1657302452815,-157,1010,303
1657302452855,-163,902,212
1657302452895,-161,907,174
1657302452935,-147,939,175
1657302452975,-139,1006,195
1657302453015,-165,1004,174
1657302453055,-160,1016,272
1657302453095,-121,1116,311
1657302453135,-126,1312,321
1657302453175,-76,1355,477
1657302453215,-304,1345,304
1657302453255,-272,1442,185
1657302453295,-80,1379,359
1657302453335,-51,1156,459
1657302453375,-24,981,500
1657302453415,62,867,405
1657302453455,135,823,345
1657302453495,191,770,329
1657302453535,152,733,356
1657302453575,209,789,374
1657302453615,272,885,327
1657302453655,337,1023,275
1657302453695,429,1202,223
1657302453735,310,1169,397
1657302453775,73,1184,494
1657302453815,-27,1272,432
1657302453855,-100,1281,276
1657302453895,-156,1088,246
1657302453935,-192,953,220
1657302453975,-169,899,161
1657302454015,-156,907,198
1657302454055,-139,1014,221
1657302454095,-168,1079,182
1657302454135,-149,1082,214
1657302454175,-125,1149,242
1657302454215,-117,1230,274
1657302454255,-9,1258,437
1657302454295,-162,1214,383
1657302454335,-218,1289,232
1657302454375,-132,1297,267
1657302454415,-115,1261,374
1657302454455,-57,1149,458
1657302454495,30,1021,518
1657302454535,90,902,504
1657302454575,137,864,474
1657302454615,202,804,461
1657302454655,145,722,439
1657302454695,173,697,394
1657302454735,362,814,392
1657302454775,474,956,281
1657302454815,468,1248,214
1657302454855,326,1583,232
1657302454895,119,1299,216
1657302454935,-68,1102,662
1657302454975,-142,1190,452
1657302455015,-97,1100,279
1657302455055,-225,985,255
1657302455095,-242,999,206
1657302455135,-206,1009,129
1657302455175,-159,944,160
1657302455215,-160,855,229
1657302455255,-185,911,304
1657302455295,-149,1090,261
1657302455335,-154,1201,244
1657302455375,-121,1312,347
1657302455415,-286,1297,199
1657302455455,-360,1385,85
1657302455495,-265,1446,277
1657302455535,-208,1516,385
1657302455575,-115,1438,506
1657302455615,-54,1477,645
1657302455655,84,1323,756
1657302455695,198,1167,720
1657302455735,306,879,619
1657302455775,344,568,462
1657302455815,394,495,308
1657302455855,559,574,108
1657302455895,567,772,-26
1657302455935,538,1142,46
1657302455975,246,1395,276
1657302456015,61,1518,507
1657302456055,-52,1650,633
1657302456095,-192,1519,488
1657302456135,-282,1286,480
1657302456175,-312,1115,431
1657302456215,-280,1011,381
1657302456255,-329,1022,321
1657302456295,-331,1069,192
1657302456335,-202,1079,215
1657302456375,-153,1038,211
1657302456415,-97,1113,298
1657302456455,-98,1246,222
1657302456495,-92,1268,340
1657302456535,-90,1172,350
1657302456575,-174,1317,299
1657302456615,-186,1401,343
1657302456655,-160,1387,534
1657302456695,-144,1263,620
1657302456735,14,1192,618
1657302456775,173,1071,570
1657302456815,226,914,512
1657302456855,194,778,432
1657302456895,187,674,369
1657302456935,220,656,338
1657302456975,308,725,281
1657302457015,440,829,198
1657302457055,492,1029,173
1657302457095,367,1145,295
1657302457135,162,1291,482
1657302457175,39,1435,566
1657302457215,-124,1519,519
1657302457255,-290,1362,449
1657302457295,-361,1176,409
1657302457335,-251,1066,271
1657302457375,-179,1011,238
1657302457415,-153,1021,232
1657302457455,-133,1024,182
1657302457495,-165,1026,174
1657302457535,-90,1115,224
1657302457575,-132,1204,223
1657302457615,-72,1327,306
1657302457655,-169,1196,290
1657302457695,-284,1346,230
1657302457735,-64,1322,442
1657302457775,-41,1283,626
1657302457815,-96,1220,635
1657302457855,-20,1098,639
1657302457895,104,992,560
1657302457935,116,917,522
1657302457975,171,775,437
1657302458015,183,680,400
1657302458055,245,688,367
1657302458095,412,745,295
1657302458135,455,877,211
1657302458175,494,1149,288
1657302458215,277,1305,497
1657302458255,-46,1337,544
1657302458295,-205,1498,542
1657302458335,-336,1383,406
1657302458375,-348,1059,483
1657302458415,-341,835,474
1657302458455,-273,788,458
1657302458495,-188,804,400
1657302458535,-203,866,319
1657302458575,-225,991,227
1657302458615,-233,1165,246
1657302458655,-299,1331,364
1657302458695,-409,1391,389
1657302458735,-307,1362,462
1657302458775,-159,1400,494
1657302458815,-70,1370,510
1657302458855,-39,1340,549
1657302458895,-76,1254,591
1657302458935,-20,1136,622
1657302458975,82,981,604
1657302459015,138,852,541
1657302459055,192,751,421
1657302459095,253,625,317
1657302459135,305,542,263
1657302459175,377,567,265
1657302459215,377,833,310
1657302459255,386,1186,329
1657302459295,309,1393,369
1657302459335,106,1426,547
1657302459375,-131,1441,698
1657302459415,-287,1397,609
1657302459455,-308,1263,510
1657302459495,-288,1067,456
1657302459535,-273,978,348
1657302459575,-173,965,276
1657302459615,-162,967,277
1657302459655,-143,1015,177
1657302459695,-170,1013,141
1657302459735,-113,1108,212
1657302459775,-145,1204,239
1657302459815,-182,1341,301
1657302459855,-201,1233,418
1657302459895,-332,1296,444
1657302459935,-226,1446,361
1657302459975,-187,1486,436
1657302460015,-118,1402,529
1657302460055,6,1241,653
1657302460095,95,1047,833
1657302460135,195,976,719
1657302460175,252,865,512
1657302460215,210,722,528
1657302460255,290,601,430
1657302460295,351,602,414
1657302460335,428,691,334
1657302460375,435,933,256
1657302460415,373,1074,271
1657302460455,217,1197,465
1657302460495,36,1443,581
1657302460535,-143,1570,545
1657302460575,-301,1461,520
1657302460615,-393,1172,569
1657302460655,-346,1102,389
1657302460695,-242,1047,310
1657302460735,-176,965,242
1657302460775,-86,941,134
1657302460815,-97,935,107
1657302460855,-67,1076,228
1657302460895,3,1238,190
1657302460935,-212,1451,355
1657302460975,-200,1293,484
1657302461015,-359,1309,606
1657302461055,-196,1457,483
1657302461095,-12,1419,493
1657302461135,34,1278,582
1657302461175,117,1120,620
1657302461215,213,986,536
1657302461255,251,866,427
1657302461295,221,780,342
1657302461335,168,697,313
1657302461375,214,656,266
1657302461415,291,751,292
1657302461455,388,872,269
1657302461495,459,1035,332
1657302461535,305,1165,383
1657302461575,64,1223,504
1657302461615,-78,1375,510
1657302461655,-115,1452,440
1657302461695,-237,1364,500
1657302461735,-373,1164,454
1657302461775,-353,1081,303
1657302461815,-222,1047,256
1657302461855,-164,1077,218
1657302461895,-156,1045,214
1657302461935,-118,1013,252
1657302461975,-88,1147,285
1657302462015,-119,1285,255
1657302462055,24,1448,85
1657302462095,-101,1150,199
1657302462135,-280,1177,541
1657302462175,-203,1376,556
1657302462215,-156,1478,692
1657302462255,-98,1500,749
1657302462295,-26,1477,774
1657302462335,103,1319,741
1657302462375,46,1255,533
1657302462415,-30,800,446
1657302462455,124,635,337
1657302462495,-154,801,281
1657302462535,-320,855,170
1657302462575,-510,762,6
1657302462615,-578,828,-222
1657302462655,-584,667,-198
1657302462695,-613,703,-122
1657302462735,-509,690,-337
1657302462775,-327,593,-441
1657302462815,-349,486,-555
1657302462855,-374,396,-504
1657302462895,-409,440,-598
1657302462935,-402,396,-639
1657302462975,-478,552,-712
1657302463015,-529,475,-804
1657302463055,-537,287,-591
1657302463095,-597,530,-794
1657302463135,-635,571,-784
1657302463175,-843,816,-723
1657302463215,-818,779,-712
1657302463255,-565,651,-614
1657302463295,-469,666,-655
1657302463335,-426,732,-683
1657302463375,-361,563,-539
1657302463415,-332,483,-510
1657302463455,-313,457,-523
1657302463495,-316,500,-573
1657302463535,-353,547,-659
1657302463575,-392,477,-554
1657302463615,-473,630,-648
1657302463655,-548,860,-770
1657302463695,-423,964,-804
1657302463735,-495,1105,-739
1657302463775,-513,1056,-603
1657302463815,-333,834,-507
1657302463855,-230,690,-467
1657302463895,-300,595,-420
1657302463935,-353,564,-456
1657302463975,-432,543,-479
1657302464015,-538,592,-510
1657302464055,-598,634,-533
1657302464095,-592,655,-554
1657302464135,-614,687,-595
1657302464175,-609,752,-628
1657302464215,-730,874,-620
1657302464255,-880,975,-618
1657302464295,-856,1015,-613
1657302464335,-679,835,-507
1657302464375,-616,755,-480
1657302464415,-554,798,-534
1657302464455,-473,716,-515
1657302464495,-431,556,-368
1657302464535,-399,447,-313
1657302464575,-514,570,-353
1657302464615,-455,455,-412
1657302464655,-446,403,-394
1657302464695,-498,434,-458
1657302464735,-577,629,-605
1657302464775,-607,746,-660
1657302464815,-725,1017,-771
1657302464855,-738,1016,-712
1657302464895,-702,875,-524
1657302464935,-485,778,-530
1657302464975,-361,668,-513
1657302465015,-402,516,-367
1657302465055,-419,475,-381
1657302465095,-402,460,-419
1657302465135,-470,532,-451
1657302465175,-569,651,-499
1657302465215,-615,702,-563
1657302465255,-596,656,-568
1657302465295,-635,753,-626
1657302465335,-748,884,-703
1657302465375,-875,890,-588
1657302465415,-936,980,-603
1657302465455,-766,865,-552
1657302465495,-594,748,-454
1657302465535,-544,787,-514
1657302465575,-517,637,-392
1657302465615,-464,469,-288
1657302465655,-422,443,-327
1657302465695,-434,427,-333
1657302465735,-406,437,-344
1657302465775,-396,442,-367
1657302465815,-275,358,-285
1657302465855,197,314,-224
1657302465895,551,481,-126
1657302465935,482,960,220
1657302465975,427,1509,416
1657302466015,238,1945,686
1657302466055,218,2043,935
1657302466095,-19,2047,868
1657302466135,-304,1799,586
1657302466175,-479,1501,495
1657302466215,-367,1361,237
1657302466255,-219,1163,118
1657302466295,-174,1049,215
1657302466335,-92,983,239
1657302466375,-23,973,171
1657302466415,24,1031,217
1657302466455,-19,1153,252
1657302466495,-25,1284,383
1657302466535,-101,1215,448
1657302466575,-223,1250,433
1657302466615,-198,1416,387
1657302466655,-116,1432,480
1657302466695,-10,1375,627
1657302466735,71,1199,659
1657302466775,168,1043,645
1657302466815,226,876,549
1657302466855,235,752,409
1657302466895,229,725,299
1657302466935,248,683,228
1657302466975,336,717,239
1657302467015,391,780,221
1657302467055,453,974,224
1657302467095,391,1102,276
1657302467135,142,1228,419
1657302467175,21,1421,488
1657302467215,-91,1531,419
1657302467255,-242,1372,456
1657302467295,-326,1124,448
1657302467335,-303,1039,312
1657302467375,-218,994,230
1657302467415,-237,1049,163
1657302467455,-209,1053,97
1657302467495,-174,1037,165
1657302467535,-73,1109,277
1657302467575,-75,1206,306
1657302467615,-35,1355,389
1657302467655,-98,1250,398
1657302467695,-296,1226,310
1657302467735,-224,1351,302
1657302467775,-216,1351,396
1657302467815,-123,1235,508
1657302467855,2,1094,547
1657302467895,132,958,526
1657302467935,222,845,492
1657302467975,239,726,424
1657302468015,158,696,347
1657302468055,162,733,328
1657302468095,308,831,345
1657302468135,318,963,308
1657302468175,300,1107,247
1657302468215,231,1101,238
1657302468255,53,1036,366
1657302468295,42,1195,398
1657302468335,-20,1347,343
1657302468375,-159,1212,436
1657302468415,-249,983,467
1657302468455,-283,968,273
1657302468495,-243,988,160
1657302468535,-185,1036,148
1657302468575,-157,1055,186
1657302468615,-160,1055,275
1657302468655,-58,1162,304
1657302468695,7,1277,349
1657302468735,27,1348,451
1657302468775,-110,1261,446
1657302468815,-276,1164,258
1657302468855,-149,1196,266
1657302468895,-16,1123,400
1657302468935,-18,1061,454
1657302468975,-28,939,466
1657302469015,26,879,441
1657302469055,83,851,412
1657302469095,91,814,412
1657302469135,94,794,380
1657302469175,142,807,350
1657302469215,227,898,349
1657302469255,329,974,330
1657302469295,373,1085,299
1657302469335,254,1142,327
1657302469375,-2,1109,371
1657302469415,-94,1149,398
1657302469455,-107,1220,280
1657302469495,-182,1102,311
1657302469535,-157,900,378
1657302469575,-190,836,264
1657302469615,-173,904,183
1657302469655,-122,977,228
1657302469695,-142,1012,265
1657302469735,-171,999,284
1657302469775,-113,1114,237
1657302469815,-106,1244,215
1657302469855,-123,1304,281
1657302469895,-171,1235,413
1657302469935,-250,1245,293
1657302469975,-136,1278,271
1657302470015,-131,1202,378
1657302470055,-95,1099,423
1657302470095,-53,970,471
1657302470135,18,887,444
1657302470175,76,831,396
1657302470215,89,788,364
1657302470255,83,746,356
1657302470295,124,763,365
1657302470335,235,900,396
1657302470375,374,1025,360
1657302470415,454,1150,306
1657302470455,247,1172,269
1657302470495,6,1125,376
1657302470535,-54,1103,468
1657302470575,-99,1145,302
1657302470615,-171,1112,138
1657302470655,-188,949,197
1657302470695,-167,872,195
1657302470735,-147,896,176
1657302470775,-119,1016,163
1657302470815,-121,1075,183
1657302470855,-137,1110,247
1657302470895,-50,1180,317
1657302470935,-41,1242,356
1657302470975,-34,1277,404
1657302471015,-131,1285,320
1657302471055,-222,1237,218
1657302471095,-133,1190,261
1657302471135,-97,1147,374
1657302471175,-95,1080,427
1657302471215,-79,981,484
1657302471255,4,912,473
1657302471295,91,871,442
1657302471335,119,830,432
1657302471375,147,829,403
1657302471415,232,811,388
1657302471455,387,876,337
1657302471495,419,945,222
1657302471535,391,1136,194
1657302471575,229,1120,260
1657302471615,58,1079,442
1657302471655,37,1180,470
1657302471695,-74,1139,363
1657302471735,-171,986,308
1657302471775,-177,909,195
1657302471815,-175,918,142
1657302471855,-149,973,182
1657302471895,-129,1041,197
1657302471935,-146,1049,211
1657302471975,-113,1112,248
1657302472015,-26,1237,254
1657302472055,-33,1314,292
1657302472095,-36,1281,451
1657302472135,-236,1140,329
1657302472175,-210,1136,263
1657302472215,-49,1142,301
1657302472255,-124,1125,314
1657302472295,-115,1018,398
1657302472335,-58,952,453
1657302472375,12,918,427
1657302472415,68,889,408
1657302472455,94,854,419
1657302472495,191,825,384
1657302472535,321,872,417
1657302472575,421,1062,336
1657302472615,493,1170,273
1657302472655,321,1116,264
1657302472695,-3,1019,191
1657302472735,-64,1131,192
1657302472775,39,1160,234
1657302472815,-55,1024,334
1657302472855,-149,872,399
1657302472895,-187,860,286
1657302472935,-178,895,210
1657302472975,-168,966,200
1657302473015,-173,1044,191
1657302473055,-212,1140,198
1657302473095,-128,1335,279
1657302473135,-119,1416,310
1657302473175,-50,1359,437
1657302473215,-208,1158,379
1657302473255,-213,1110,218
1657302473295,-18,1146,254
1657302473335,3,1056,318
1657302473375,-35,933,378
1657302473415,-64,857,385
1657302473455,-33,858,366
1657302473495,16,846,362
1657302473535,19,815,376
1657302473575,151,798,371
1657302473615,253,810,405
1657302473655,280,970,371
1657302473695,436,1126,372
1657302473735,526,1225,440
1657302473775,372,1152,528
1657302473815,80,1011,496
1657302473855,1,1193,383
1657302473895,85,1133,151
1657302473935,16,956,273
1657302473975,-56,870,314
1657302474015,-56,935,207
1657302474055,-62,985,216
1657302474095,-86,1021,214
1657302474135,-161,1050,173
1657302474175,-167,1073,191
1657302474215,-126,1211,275
1657302474255,-90,1394,396
1657302474295,-85,1464,491
1657302474335,-272,1357,382
1657302474375,-188,1409,355
1657302474415,-80,1375,418
1657302474455,18,1246,589
1657302474495,131,1073,633
1657302474535,195,878,563
1657302474575,221,738,428
1657302474615,208,707,246
1657302474655,201,653,151
1657302474695,213,635,292
1657302474735,237,733,365
1657302474775,272,904,381
1657302474815,353,1104,417
1657302474855,385,1211,447
1657302474895,87,1304,537
1657302474935,-5,1362,506
1657302474975,-52,1317,541
1657302475015,-207,1139,512
1657302475055,-231,970,495
1657302475095,-150,893,370
1657302475135,-156,998,222
1657302475175,-28,992,172
1657302475215,-15,1017,259
1657302475255,-124,1030,275
1657302475295,-103,1062,409
1657302475335,-95,1271,456
1657302475375,-104,1403,499
1657302475415,-51,1404,707
1657302475455,-144,1277,621
1657302475495,-14,1326,744
1657302475535,134,1173,939
1657302475575,115,1011,1033
1657302475615,2,860,973
1657302475655,-62,621,1029
1657302475695,78,431,849
1657302475735,186,387,455
1657302475775,184,339,269
1657302475815,195,188,325
1657302475855,227,243,272
1657302475895,329,480,374
1657302475935,377,802,599
1657302475975,442,1188,1148
1657302476015,279,1329,1604
1657302476055,-242,1335,1769
1657302476095,-478,1016,1473
1657302476135,-366,656,1184
1657302476175,-348,515,890
1657302476215,-354,551,725
1657302476255,-164,751,900
1657302476295,-110,594,727
1657302476335,-144,746,744
1657302476375,-141,682,686
1657302476415,-88,695,712
1657302476455,-58,737,696
1657302476495,-92,662,757
1657302476535,-91,706,850
1657302476575,-257,728,856
1657302476615,-220,964,912
1657302476655,-364,1525,857
1657302476695,-473,1634,815
1657302476735,-284,1805,1096
1657302476775,228,1293,1030
1657302476815,-86,1420,760
1657302476855,-202,1053,1247
1657302476895,422,735,350
1657302476935,400,502,-16
1657302476975,316,361,-147
1657302477015,363,355,-163
1657302477055,398,527,-6
1657302477095,709,960,375
1657302477135,721,1732,1093
1657302477175,292,2047,1710
1657302477215,-33,1962,1215
1657302477255,-63,1777,611
1657302477295,-361,1478,606
1657302477335,-214,1162,395
1657302477375,-83,1013,309
1657302477415,-114,996,246
1657302477455,-102,990,196
1657302477495,-95,957,225
1657302477535,-139,884,318
1657302477575,-182,1052,386
1657302477615,-141,1136,418
1657302477655,-9,1365,559
1657302477695,-221,1491,498
1657302477735,-317,1555,443
1657302477775,-29,1582,614
1657302477815,23,1560,650
1657302477855,-26,1404,670
1657302477895,-99,1262,644
1657302477935,-438,1159,844
1657302477975,-355,1034,883
1657302478015,-338,824,701
1657302478055,237,265,166
1657302478095,111,333,-269
1657302478135,-72,332,-509
1657302478175,1,261,-267
1657302478215,-658,357,419
1657302478255,-199,486,2046
1657302478295,-6,-960,2046
1657302478335,-399,-1222,1907
1657302478375,-678,-137,1101
1657302478415,-527,34,355
1657302478455,-464,84,236
1657302478495,-581,-271,625
1657302478535,-600,-722,1131
1657302478575,-471,-555,1232
1657302478615,-557,-535,1001
1657302478655,-606,-647,1041
1657302478695,-430,-261,600
1657302478735,-344,-35,-63
1657302478775,-195,-20,-232
1657302478815,102,150,-354
1657302478855,-188,657,-335
1657302478895,555,1973,1779
1657302478935,-993,1287,2046
1657302478975,-38,1140,2046
1657302479015,-168,1044,979
1657302479055,-543,691,797
1657302479095,-639,449,1127
1657302479135,-302,327,773
1657302479175,-260,130,351
1657302479215,-154,-6,70
1657302479255,-339,-60,200
1657302479295,100,212,-550
1657302479335,33,549,-673
1657302479375,-137,874,421
1657302479415,895,2047,2046
1657302479455,-536,1538,2046
1657302479495,36,1135,2046
1657302479535,-452,1231,965
1657302479575,-639,897,611
1657302479615,-812,593,1129
1657302479655,-790,714,1342
1657302479695,-569,1,1070
1657302479735,-268,-337,693
1657302479775,-215,-158,177
1657302479815,-227,-78,6
1657302479855,-60,-45,-421
1657302479895,-239,124,-578
1657302479935,-348,178,-559
1657302479975,-125,484,135
1657302480015,646,707,1997
1657302480055,-1505,356,2046
1657302480095,-296,997,1725
1657302480135,-588,251,1098
1657302480175,-355,310,958
1657302480215,-425,159,1279
1657302480255,-382,105,1205
1657302480295,-310,-30,697
1657302480335,-471,-164,593
1657302480375,12,-58,-269
1657302480415,78,-85,-1050
1657302480455,168,145,-915
1657302480495,-34,383,-915
1657302480535,-11,413,66
1657302480575,301,1005,1384
1657302480615,-458,1717,2046
1657302480655,-684,1366,2046
1657302480695,-592,917,1359
1657302480735,-560,467,1029
1657302480775,-575,337,1191
1657302480815,-599,667,1642
1657302480855,-599,326,1785
1657302480895,-272,120,828
1657302480935,-86,184,-63
1657302480975,224,138,-786
1657302481015,55,120,-860
1657302481055,-46,6,-883
1657302481095,-207,73,-687
1657302481135,-171,204,-177
1657302481175,340,998,685
1657302481215,586,1276,2046
1657302481255,-710,495,2046
1657302481295,101,875,1749
1657302481335,-682,303,1590
1657302481375,-402,344,1524
1657302481415,-370,304,1417
1657302481455,-349,119,1127
1657302481495,-386,-31,906
1657302481535,-155,22,256
1657302481575,-43,70,-422
1657302481615,43,218,-523
1657302481655,-2,244,-473
1657302481695,53,106,0
1657302481735,254,286,366
1657302481775,252,685,1051
1657302481815,277,1174,1525
1657302481855,338,1700,1798
1657302481895,470,2047,1612
1657302481935,272,2047,1465
1657302481975,-305,1900,1476
1657302482015,-651,1679,902
1657302482055,-375,1381,499
1657302482095,-169,1162,326
1657302482135,-136,1027,191
1657302482175,-164,956,156
1657302482215,-227,944,117
1657302482255,-222,1112,310
1657302482295,-230,1404,388
1657302482335,-97,1455,640
1657302482375,-22,1766,831
1657302482415,-24,1843,706
1657302482455,101,1725,897
1657302482495,350,1540,1009
1657302482535,460,1214,844
1657302482575,315,930,565
1657302482615,184,752,292
1657302482655,236,461,113
1657302482695,166,355,-31
1657302482735,-32,232,93
1657302482775,8,211,54
1657302482815,35,346,90
1657302482855,150,607,356
1657302482895,406,1015,611
1657302482935,615,1752,1030
1657302482975,450,2047,1347
1657302483015,-109,2047,1320
1657302483055,-565,1847,887
1657302483095,-356,1377,408
1657302483135,-57,1040,290
1657302483175,9,753,169
1657302483215,-68,729,129
1657302483255,-203,867,185
1657302483295,-174,988,235
1657302483335,-189,1022,375
1657302483375,-133,1023,453
1657302483415,-22,1027,427
1657302483455,107,1043,396
1657302483495,158,1106,384
1657302483535,147,1353,524
1657302483575,96,1466,410
1657302483615,-212,1556,424
1657302483655,-144,1381,744
1657302483695,127,1214,803
1657302483735,200,998,623
1657302483775,161,880,435
1657302483815,191,792,262
1657302483855,455,675,25
1657302483895,-82,635,272
1657302483935,141,564,358
1657302483975,319,594,230
1657302484015,177,752,241
1657302484055,314,897,288
1657302484095,457,1086,331
1657302484135,435,1317,384
1657302484175,364,1491,519
1657302484215,181,1649,548
1657302484255,-121,1638,499
1657302484295,-276,1423,338
1657302484335,-218,1188,313
1657302484375,-151,968,281
1657302484415,-123,867,205
1657302484455,-25,847,131
1657302484495,9,873,143
1657302484535,-28,934,231
1657302484575,-40,954,360
1657302484615,37,946,352
1657302484655,144,1053,350
1657302484695,206,1218,315
1657302484735,249,1438,448
1657302484775,98,1431,603
1657302484815,-196,1225,378
1657302484855,-173,1052,295
1657302484895,-16,949,288
1657302484935,90,964,252
1657302484975,-10,926,320
1657302485015,18,906,443
1657302485055,94,912,413
1657302485095,6,906,502
1657302485135,-56,858,507
1657302485175,-3,802,377
1657302485215,104,769,358
1657302485255,278,847,346
1657302485295,374,953,316
1657302485335,468,1159,317
1657302485375,362,1223,459
1657302485415,121,1314,506
1657302485455,-40,1412,410
1657302485495,-24,1249,203
1657302485535,45,1009,322
1657302485575,-57,876,344
1657302485615,-137,919,274
1657302485655,-101,976,208
1657302485695,-90,1012,175
1657302485735,-133,1012,200
1657302485775,-141,1009,194
1657302485815,-57,1099,217
1657302485855,-27,1242,209
1657302485895,42,1271,311
1657302485935,97,1191,526
1657302485975,-102,1119,540
1657302486015,-148,1168,370
1657302486055,-63,1204,354
1657302486095,-63,1203,352
1657302486135,-59,1049,460
1657302486175,-9,943,544
1657302486215,114,897,491
1657302486255,117,862,446
1657302486295,78,820,397
1657302486335,93,768,355
1657302486375,110,731,329
1657302486415,202,771,293
1657302486455,287,856,325
1657302486495,339,1087,365
1657302486535,347,1338,297
1657302486575,126,1336,359
1657302486615,-36,1325,437
1657302486655,-129,1293,378
1657302486695,-130,1115,327
1657302486735,-28,895,355
1657302486775,-83,843,240
1657302486815,-97,861,128
1657302486855,-116,897,135
1657302486895,-95,957,174
1657302486935,-125,1044,238
1657302486975,-195,1120,227
1657302487015,-109,1230,258
1657302487055,-76,1233,282
1657302487095,20,1255,437
1657302487135,108,1183,566
1657302487175,-61,1167,447
1657302487215,-73,1188,279
1657302487255,-31,1233,342
1657302487295,-22,1055,447
1657302487335,-46,900,494
1657302487375,18,835,461
1657302487415,109,817,391
1657302487455,145,780,368
1657302487495,135,726,361
1657302487535,116,725,334
1657302487575,149,827,315
1657302487615,221,1005,365
1657302487655,230,1130,333
1657302487695,290,1244,266
1657302487735,247,1291,326
1657302487775,47,1220,481
1657302487815,-182,1155,455
1657302487855,-127,1031,195
1657302487895,11,847,170
1657302487935,48,793,231
1657302487975,-59,870,258
1657302488015,-108,958,313
1657302488055,-65,1001,278
1657302488095,-98,981,222
1657302488135,-26,1042,206
1657302488175,45,1139,190
1657302488215,3,1147,242
1657302488255,40,1186,332
1657302488295,82,1265,395
1657302488335,-57,1269,278
1657302488375,-123,1330,202
1657302488415,-35,1253,280
1657302488455,4,1110,453
1657302488495,3,906,496
1657302488535,-32,814,456
1657302488575,37,801,395
1657302488615,81,772,368
1657302488655,29,772,350
1657302488695,65,803,348
1657302488735,37,808,360
1657302488775,36,907,340
1657302488815,155,1040,336
1657302488855,294,1125,353
1657302488895,386,1251,263
1657302488935,192,1148,287
1657302488975,89,1093,400
1657302489015,73,1118,280
1657302489055,0,1060,212
1657302489095,14,919,222
1657302489135,-41,866,216
1657302489175,-47,865,211
1657302489215,-54,897,240
1657302489255,-50,986,212
1657302489295,-67,1026,190
1657302489335,-77,1061,193
1657302489375,-29,1136,222
1657302489415,-21,1189,259
1657302489455,-45,1189,258
1657302489495,-23,1171,324
1657302489535,-59,1257,277
1657302489575,-96,1355,192
1657302489615,-107,1331,217
1657302489655,-24,1260,412
1657302489695,-54,1063,513
1657302489735,-59,936,535
1657302489775,51,870,521
1657302489815,113,807,456
1657302489855,67,757,397
1657302489895,57,728,335
1657302489935,54,711,304
1657302489975,87,729,280
1657302490015,147,810,284
1657302490055,211,1004,299
1657302490095,291,1254,304
1657302490135,333,1432,349
1657302490175,225,1362,422
1657302490215,71,1172,517
1657302490255,-57,1149,442
1657302490295,35,1118,272
1657302490335,48,949,315
1657302490375,-46,867,329
1657302490415,-140,873,265
1657302490455,-140,901,228
1657302490495,-90,956,220
1657302490535,-145,1020,226
1657302490575,-131,1064,176
1657302490615,-19,1130,213
1657302490655,52,1232,259
1657302490695,2,1311,281
1657302490735,137,1386,386
1657302490775,133,1352,350
1657302490815,57,1279,276
1657302490855,168,1133,311
1657302490895,166,1113,460
1657302490935,60,973,480
1657302490975,56,888,532
1657302491015,113,796,467
1657302491055,99,715,390
1657302491095,72,646,374
1657302491135,108,646,347
1657302491175,62,739,326
1657302491215,-29,856,299
1657302491255,52,1011,348
1657302491295,145,1029,359
1657302491335,307,1231,451
1657302491375,341,1216,344
1657302491415,175,1329,450
1657302491455,91,1390,399
1657302491495,-42,1231,346
1657302491535,-11,951,326
1657302491575,-36,824,215
1657302491615,-51,782,123
1657302491655,-26,800,115
1657302491695,-78,814,179
1657302491735,-125,838,213
1657302491775,-32,960,204
1657302491815,17,1123,242
1657302491855,78,1163,402
1657302491895,57,1155,470
1657302491935,211,1322,507
1657302491975,93,1305,373
1657302492015,-22,1251,209
1657302492055,16,1161,263
1657302492095,49,1129,376
1657302492135,24,994,391
1657302492175,-37,812,400
1657302492215,-39,682,407
1657302492255,-25,638,372
1657302492295,9,690,345
1657302492335,44,803,358
1657302492375,7,941,379
1657302492415,41,1063,430
1657302492455,181,1092,469
1657302492495,327,1083,467
1657302492535,404,1116,387
1657302492575,344,1135,305
1657302492615,236,1148,307
1657302492655,-26,1230,319
1657302492695,-49,1055,165
1657302492735,26,820,225
1657302492775,-35,680,245
1657302492815,-88,753,179
1657302492855,-119,921,140
1657302492895,-132,994,161
1657302492935,-107,959,249
1657302492975,-162,963,262
1657302493015,-68,1101,205
1657302493055,20,1225,180
1657302493095,13,1351,271
1657302493135,6,1390,422
1657302493175,-140,1244,366
1657302493215,-260,1093,146
1657302493255,-121,1127,142
1657302493295,33,1120,276
1657302493335,63,989,350
1657302493375,-107,926,407
1657302493415,-42,877,465
1657302493455,2,827,469
1657302493495,7,799,462
1657302493535,13,755,440
1657302493575,11,753,398
1657302493615,133,878,385
1657302493655,272,1022,322
1657302493695,340,1138,249
1657302493735,465,1312,213
1657302493775,191,1252,279
1657302493815,-72,1205,431
1657302493855,-107,1182,322
1657302493895,-70,1023,194
1657302493935,-68,828,219
1657302493975,-73,753,155
1657302494015,-57,805,160
1657302494055,-56,893,235
1657302494095,-80,996,218
1657302494135,-126,1034,185
1657302494175,-139,1055,166
1657302494215,6,1099,207
1657302494255,-16,1114,289
1657302494295,-137,1295,382
1657302494335,-47,1230,544
1657302494375,-222,1086,487
1657302494415,-208,1191,355
1657302494455,-154,1155,334
1657302494495,-139,1024,409
1657302494535,-89,861,451
1657302494575,4,787,436
1657302494615,77,764,382
1657302494655,78,774,319
1657302494695,29,750,305
1657302494735,45,732,316
1657302494775,43,778,287
1657302494815,38,898,229
1657302494855,158,1058,229
1657302494895,174,1196,396
1657302494935,116,1299,335
1657302494975,-10,1291,447
1657302495015,-52,1278,532
1657302495055,-141,1217,460
1657302495095,-166,1028,404
1657302495135,-51,792,313
1657302495175,-4,696,181
1657302495215,4,678,162
1657302495255,-70,773,275
1657302495295,-85,832,347
1657302495335,-107,931,338
1657302495375,-71,1000,231
1657302495415,14,1110,250
1657302495455,66,1177,330
1657302495495,83,1238,417
1657302495535,74,1218,399
1657302495575,-28,1161,326
1657302495615,-79,1196,229
1657302495655,-129,1247,137
1657302495695,-162,1192,219
1657302495735,-131,1065,338
1657302495775,-72,885,348
1657302495815,-53,878,329
1657302495855,58,834,343
1657302495895,64,787,381
1657302495935,12,804,441
1657302495975,8,814,468
1657302496015,-27,813,490
1657302496055,87,897,522
1657302496095,196,980,438
1657302496135,356,1134,367
1657302496175,392,1255,228
1657302496215,144,1172,244
1657302496255,19,1181,343
1657302496295,69,1154,250
1657302496335,-7,1025,246
1657302496375,5,851,266
1657302496415,-33,809,157
1657302496455,-69,832,146
1657302496495,-65,853,209
1657302496535,-37,905,224
1657302496575,-108,936,218
1657302496615,-109,964,167
1657302496655,-33,1034,121
1657302496695,57,1142,242
1657302496735,68,1214,357
1657302496775,155,1381,471
1657302496815,145,1410,569
1657302496855,-84,1377,478
1657302496895,-110,1239,291
1657302496935,116,952,388
1657302496975,176,787,438
1657302497015,13,743,367
1657302497055,-2,743,294
1657302497095,105,674,233
1657302497135,76,643,274
1657302497175,23,689,291
1657302497215,61,740,318
1657302497255,96,796,316
1657302497295,64,964,363
1657302497335,126,1227,452
1657302497375,89,1367,373
1657302497415,244,1481,398
1657302497455,223,1239,462
1657302497495,60,1037,398
1657302497535,179,1086,121
1657302497575,324,957,18
1657302497615,330,754,215
1657302497655,200,671,341
1657302497695,118,685,349
1657302497735,93,753,311
1657302497775,35,840,247
1657302497815,-30,903,219
1657302497855,-38,954,195
1657302497895,1,1044,232
1657302497935,-9,1161,318
1657302497975,-23,1263,327
1657302498015,76,1435,416
1657302498055,50,1388,384
1657302498095,6,1353,285
1657302498135,57,1174,324
1657302498175,45,964,492
1657302498215,-47,787,484
1657302498255,-75,745,389
1657302498295,41,734,305
1657302498335,83,692,287
1657302498375,76,688,296
1657302498415,67,722,350
1657302498455,21,802,369
1657302498495,-52,869,355
1657302498535,-48,939,331
1657302498575,75,1071,382
1657302498615,120,1200,358
1657302498655,197,1352,247
1657302498695,158,1266,128
1657302498735,107,1249,325
1657302498775,94,1267,345
1657302498815,49,1114,379
1657302498855,57,858,436
1657302498895,46,727,321
1657302498935,49,743,226
1657302498975,73,777,274
1657302499015,-3,779,402
1657302499055,-77,809,365
1657302499095,-97,880,266
1657302499135,-64,930,176
1657302499175,-54,966,151
1657302499215,-37,1067,226
1657302499255,-87,1178,388
1657302499295,55,1280,338
1657302499335,165,1318,413
1657302499375,28,1443,296
1657302499415,-136,1292,270
1657302499455,86,1045,433
1657302499495,254,827,454
1657302499535,46,735,459
1657302499575,-106,751,468
1657302499615,-4,768,377
1657302499655,-8,735,347
1657302499695,5,772,313
1657302499735,30,839,325
1657302499775,14,880,372
1657302499815,-64,915,382
1657302499855,-4,895,413
1657302499895,97,961,389
1657302499935,81,1210,250
1657302499975,289,1298,42
1657302500015,290,1258,243
1657302500055,90,1317,384
1657302500095,-114,1312,314
1657302500135,16,1065,268
1657302500175,85,870,239
1657302500215,51,722,250
1657302500255,85,661,309
1657302500295,106,671,310
1657302500335,3,740,327
1657302500375,-34,819,307
1657302500415,-37,894,276
1657302500455,43,1017,207
1657302500495,33,1170,123
1657302500535,-85,1226,143
1657302500575,-6,1334,313
1657302500615,6,1410,448
1657302500655,-184,1303,322
1657302500695,-262,1294,220
1657302500735,-134,1200,330
1657302500775,-73,1038,436
1657302500815,-18,883,445
1657302500855,7,798,425
1657302500895,47,763,378
1657302500935,73,745,358
1657302500975,13,797,307
1657302501015,45,859,215
1657302501055,14,890,240
1657302501095,13,884,310
1657302501135,40,975,251
1657302501175,25,1054,179
1657302501215,77,1197,207
1657302501255,237,1269,358
1657302501295,107,1238,425
1657302501335,25,1125,446
1657302501375,-27,1091,398
1657302501415,50,941,363
1657302501455,43,740,357
1657302501495,-45,653,348
1657302501535,-18,762,306
1657302501575,-24,875,263
1657302501615,-67,978,283
1657302501655,-102,986,271
1657302501695,-111,990,228
1657302501735,-26,1026,160
1657302501775,49,1109,158
1657302501815,61,1209,232
1657302501855,106,1365,388
1657302501895,69,1482,583
1657302501935,-166,1365,388
1657302501975,-138,1190,238
1657302502015,184,999,303
1657302502055,245,844,355
1657302502095,-8,804,432
1657302502135,-59,789,431
1657302502175,65,792,394
1657302502215,76,824,435
1657302502255,63,848,503
1657302502295,2,865,489
1657302502335,-18,838,424
1657302502375,52,800,401
1657302502415,137,860,326
1657302502455,273,1007,199
1657302502495,374,1274,160
1657302502535,217,1339,234
1657302502575,79,1253,312
1657302502615,15,1334,339
1657302502655,-64,1242,338
1657302502695,45,977,479
1657302502735,28,708,430
1657302502775,-60,668,295
1657302502815,-12,717,209
1657302502855,27,742,292
1657302502895,33,814,258
1657302502935,-73,845,316
1657302502975,-76,915,318
1657302503015,-22,1115,348
1657302503055,-46,1231,333
1657302503095,9,1290,371
1657302503135,141,1255,472
1657302503175,115,1280,439
1657302503215,-16,1293,229
1657302503255,-37,1140,180
1657302503295,271,899,483
1657302503335,4,887,230
1657302503375,-216,863,408
1657302503415,-62,836,430
1657302503455,-2,842,437
1657302503495,41,778,454
1657302503535,51,748,425
1657302503575,51,809,393
1657302503615,1,865,386
1657302503655,-7,919,398
1657302503695,85,1027,406
1657302503735,138,1047,327
1657302503775,278,1198,295
1657302503815,321,1159,176
1657302503855,218,1201,400
1657302503895,3,1179,425
1657302503935,-100,1091,336
1657302503975,72,859,237
1657302504015,118,735,70
1657302504055,-11,716,218
1657302504095,-14,727,305
1657302504135,-56,867,254
1657302504175,-98,991,239
1657302504215,-84,1084,131
1657302504255,-31,1162,60
1657302504295,56,1125,180
1657302504335,16,1035,299
1657302504375,132,1152,376
1657302504415,193,1225,420
1657302504455,-18,1341,431
1657302504495,-105,1310,432
1657302504535,-77,1129,507
1657302504575,12,909,477
1657302504615,33,733,327
1657302504655,33,735,312
1657302504695,79,748,292
1657302504735,98,732,284
1657302504775,28,756,271
1657302504815,-32,801,289
1657302504855,-60,900,261
1657302504895,-24,994,262
1657302504935,2,1129,298
1657302504975,-4,1222,271
1657302505015,127,1311,346
1657302505055,110,1139,329
1657302505095,74,985,439
1657302505135,31,1024,420
1657302505175,-27,1117,265
1657302505215,13,1001,284
1657302505255,61,746,317
1657302505295,64,700,296
1657302505335,23,802,211
1657302505375,11,872,211
1657302505415,-30,912,263
1657302505455,-32,934,252
1657302505495,-14,946,239
1657302505535,72,989,228
1657302505575,36,1052,250
1657302505615,-23,1095,273
1657302505655,64,1286,375
1657302505695,13,1381,335
1657302505735,-211,1388,222
1657302505775,-202,1264,190
1657302505815,42,1087,284
1657302505855,115,963,306
1657302505895,-14,868,377
1657302505935,-13,818,424
1657302505975,12,784,419
1657302506015,25,750,400
1657302506055,66,732,406
1657302506095,102,767,424
1657302506135,73,859,389
1657302506175,141,1045,368
1657302506215,262,1089,318
1657302506255,358,1226,231
1657302506295,303,1226,305
1657302506335,99,1158,471
1657302506375,-120,1156,443
1657302506415,-6,1074,230
1657302506455,108,849,239
1657302506495,98,711,221
1657302506535,144,717,241
1657302506575,76,831,270
1657302506615,0,917,350
1657302506655,-89,994,371
1657302506695,-94,1058,240
1657302506735,-95,1159,205
1657302506775,-89,1227,223
1657302506815,-119,1208,255
1657302506855,0,1270,346
1657302506895,-79,1377,262
1657302506935,-268,1298,181
1657302506975,-247,1289,245
1657302507015,-125,1286,443
1657302507055,-69,1259,597
1657302507095,-85,1157,682
1657302507135,-27,1064,680
1657302507175,-104,1025,596
1657302507215,-78,843,516
1657302507255,-8,651,288
1657302507295,38,526,112
1657302507335,144,469,74
1657302507375,176,525,72
1657302507415,174,697,141
1657302507455,254,1035,128
1657302507495,246,1348,263
1657302507535,34,1526,530
1657302507575,-174,1621,600
1657302507615,-320,1548,455
1657302507655,-373,1258,418
1657302507695,-349,1021,320
1657302507735,-236,911,232
1657302507775,-143,925,191
1657302507815,-113,934,142
1657302507855,-145,1029,83
1657302507895,-271,1036,174
1657302507935,-278,1061,268
1657302507975,-210,1169,248
1657302508015,-274,1296,264
1657302508055,-227,1371,406
1657302508095,-327,1394,308
1657302508135,-360,1546,280
1657302508175,-286,1539,613
1657302508215,-322,1559,699
1657302508255,-243,1393,668
1657302508295,-347,1273,612
1657302508335,-261,1078,441
1657302508375,-322,997,176
1657302508415,-320,773,64
1657302508455,-125,529,-248
1657302508495,-281,358,-344
1657302508535,-146,362,-548
1657302508575,-297,43,-360
1657302508615,-280,126,-676
1657302508655,-562,430,-711
1657302508695,-577,702,-818
1657302508735,-607,631,-579
1657302508775,-547,906,-735
1657302508815,-441,764,-640
1657302508855,-382,479,-526
1657302508895,-380,395,-551
1657302508935,-428,439,-585
1657302508975,-521,479,-629
1657302509015,-484,434,-627
1657302509055,-587,579,-775
1657302509095,-627,453,-779
1657302509135,-620,376,-768
1657302509175,-645,267,-729
1657302509215,-709,386,-783
1657302509255,-757,380,-774
1657302509295,-819,506,-627
1657302509335,-766,809,-644
1657302509375,-715,879,-688
1657302509415,-523,697,-569
1657302509455,-477,597,-581
1657302509495,-482,420,-482
1657302509535,-465,306,-541
1657302509575,-554,449,-596
1657302509615,-534,441,-636
1657302509655,-567,274,-636
1657302509695,-601,237,-700
1657302509735,-601,223,-723
1657302509775,-649,172,-693
1657302509815,-528,145,-748
1657302509855,-515,212,-601
1657302509895,-723,911,-859
1657302509935,-957,1304,-1028
1657302509975,-828,1031,-830
1657302510015,-699,966,-988
1657302510055,-733,681,-988
1657302510095,-686,338,-925
1657302510135,-449,688,-229
1657302510175,-250,-260,-244
1657302510215,-180,-493,-69
1657302510255,-205,-698,-12
1657302510295,-154,-754,-143
1657302510335,-295,-717,-248
1657302510375,-344,-806,-228
1657302510415,-221,-878,269
1657302510455,8,-429,469
1657302510495,-185,92,-33
1657302510535,-624,1969,-1385
1657302510575,-994,1922,-1643
1657302510615,-770,1575,-1269
1657302510655,-578,1098,-1084
1657302510695,-383,633,-824
1657302510735,-398,518,-586
1657302510775,-491,527,-655
1657302510815,-761,719,-710
1657302510855,-623,544,-618
1657302510895,-319,67,-468
1657302510935,-320,-187,-366
1657302510975,-149,-388,-314
1657302511015,-132,-531,-180
1657302511055,-156,-46,-78
1657302511095,-815,2040,-1232
1657302511135,-956,1895,-1645
1657302511175,-883,1591,-899
1657302511215,-443,996,-926
1657302511255,-493,889,-812
1657302511295,-423,731,-600
1657302511335,-396,435,-487
1657302511375,-442,239,-403
1657302511415,-470,95,-445
1657302511455,-456,-82,-407
1657302511495,-474,-209,-379
1657302511535,-436,-303,-403
1657302511575,-466,-410,-332
1657302511615,-467,-564,-315
1657302511655,-401,-359,-159
1657302511695,-404,-335,-40
1657302511735,-746,1994,-1194
1657302511775,-1299,2047,-1749
1657302511815,-957,1376,-1042
1657302511855,-595,773,-704
1657302511895,-510,605,-646
1657302511935,-641,629,-639
1657302511975,-681,505,-598
1657302512015,-657,386,-511
1657302512055,-586,181,-589
1657302512095,-409,-83,-426
1657302512135,-277,-395,-334
1657302512175,-275,-600,-270
1657302512215,-262,-638,-171
1657302512255,-237,-605,-159
1657302512295,38,-189,-211
1657302512335,186,353,-332
1657302512375,-710,1789,-609
1657302512415,-1451,2047,-1354
1657302512455,-1364,1842,-1204
1657302512495,-1030,1063,-1091
1657302512535,-646,641,-910
1657302512575,-639,608,-771
1657302512615,-601,607,-717
1657302512655,-630,750,-680
1657302512695,-495,500,-328
1657302512735,-118,-685,12
1657302512775,-160,-677,-163
1657302512815,-253,-431,18
1657302512855,-91,-762,-36
1657302512895,-185,-829,-43
1657302512935,-221,-416,188
1657302512975,-1211,1860,-569
1657302513015,-1816,2047,-1591
1657302513055,-1793,1386,-830
1657302513095,-1016,854,-745
1657302513135,-719,468,-594
1657302513175,-719,385,-536
1657302513215,-602,146,-512
1657302513255,-568,-12,-471
1657302513295,-369,-161,-428
1657302513335,-221,-330,-333
1657302513375,-58,-682,-142
1657302513415,-12,-765,-113
1657302513455,75,-900,-73
1657302513495,-60,-702,-158
1657302513535,-179,-123,-171
1657302513575,-1403,2047,-1050
1657302513615,-2048,2047,-1632
1657302513655,-1604,884,-987
1657302513695,-459,-37,-794
1657302513735,-454,129,-752
1657302513775,-565,202,-678
1657302513815,-568,-96,-437
1657302513855,-526,-125,-462
1657302513895,-437,-251,-492
1657302513935,-377,-364,-399
1657302513975,-330,-392,-431
1657302514015,-142,-644,-362
1657302514055,-241,-747,-371
1657302514095,4,-546,-350
1657302514135,-230,-656,-69
1657302514175,-920,1428,-294
1657302514215,-1678,1897,-1393
1657302514255,-1919,1861,-1154
1657302514295,-1159,1081,-953
1657302514335,-740,694,-779
1657302514375,-730,570,-689
1657302514415,-712,373,-499
1657302514455,-618,206,-389
1657302514495,-468,-97,-494
1657302514535,-173,-342,-193
1657302514575,177,-764,-39
1657302514615,315,-943,-45
1657302514655,220,-928,-144
1657302514695,154,-490,-187
1657302514735,271,-276,55
1657302514775,-46,953,328
1657302514815,-2048,2047,-597
1657302514855,-1257,2047,-1494
1657302514895,-236,950,-1164
1657302514935,-272,778,-734
1657302514975,-547,774,-1036
1657302515015,-475,640,-743
1657302515055,-660,562,-526
1657302515095,-561,327,-566
1657302515135,-717,256,-436
1657302515175,-564,95,-437
1657302515215,-249,-290,-369
1657302515255,14,-652,-292
1657302515295,99,-823,-320
1657302515335,-39,-644,-229
1657302515375,-407,-164,-1
1657302515415,-1534,2047,-846
1657302515455,-1877,2047,-1077
1657302515495,-1392,1520,-1009
1657302515535,-692,622,-577
1657302515575,-668,428,-557
1657302515615,-610,339,-425
1657302515655,-479,11,-383
1657302515695,-458,-305,-260
1657302515735,-279,-401,-370
1657302515775,-301,-505,-263
1657302515815,-162,-626,-176
1657302515855,-104,-827,-167
1657302515895,155,-475,-107
1657302515935,147,-488,-142
1657302515975,-224,1040,-399
1657302516015,-1741,2047,-1397
1657302516055,-2048,2047,-727
1657302516095,-1251,1128,-719
1657302516135,-654,518,-689
1657302516175,-688,479,-663
1657302516215,-801,449,-516
1657302516255,-653,411,-543
1657302516295,-635,198,-418
1657302516335,-376,-59,-362
1657302516375,-312,-353,-214
1657302516415,-224,-577,-155
1657302516455,-112,-726,-95
1657302516495,-70,-912,-35
1657302516535,-173,-686,-99
1657302516575,-336,-48,63
1657302516615,-939,1991,-326
1657302516655,-1984,2047,-1903
1657302516695,-1503,1662,-721
1657302516735,-810,826,-834
1657302516775,-664,644,-653
1657302516815,-713,378,-436
1657302516855,-679,283,-399
1657302516895,-482,53,-356
1657302516935,-502,-67,-340
1657302516975,-229,-367,-224
1657302517015,-92,-610,-228
1657302517055,209,-838,-41
1657302517095,514,-863,57
1657302517135,454,-90,231
1657302517175,-545,2047,485
1657302517215,-2048,2047,-1081
1657302517255,-1361,1949,-108
1657302517295,-1064,1117,-694
1657302517335,-712,817,-575
1657302517375,-814,766,-548
1657302517415,-755,524,-343
1657302517455,-653,350,-255
1657302517495,-510,140,-240
1657302517535,-404,-134,-192
1657302517575,-470,-141,-271
1657302517615,-553,-91,-419
1657302517655,-418,-384,-363
1657302517695,-245,-348,-280
1657302517735,-80,-408,-66
1657302517775,-937,784,-172
1657302517815,-2044,2047,-1166
1657302517855,-2048,1869,-803
1657302517895,-1245,980,-652
1657302517935,-837,764,-702
1657302517975,-827,660,-567
1657302518015,-733,484,-356
1657302518055,-543,143,-192
1657302518095,-407,-146,-164
1657302518135,-252,-241,-198
1657302518175,0,-441,-197
1657302518215,249,-669,-115
1657302518255,248,-713,-17
1657302518295,85,-77,-150
1657302518335,-222,737,-114
1657302518375,-1616,2047,-867
1657302518415,-2048,2047,-1251
1657302518455,-1740,1073,-1043
1657302518495,-888,500,-770
1657302518535,-708,667,-733
1657302518575,-495,374,-399
1657302518615,-393,201,-302
1657302518655,-310,-15,-272
1657302518695,-217,-253,-208
1657302518735,-286,-351,-265
1657302518775,-247,-423,-257
1657302518815,-160,-635,-205
1657302518855,-229,-438,-409
1657302518895,-347,-477,-408
1657302518935,-1242,661,-618
1657302518975,-2048,1866,-971
1657302519015,-2048,1082,-282
1657302519055,-1255,375,-213
1657302519095,-801,300,-470
1657302519135,-779,180,-367
1657302519175,-697,58,-295
1657302519215,-599,-82,-286
1657302519255,-538,-200,-283
1657302519295,-388,-368,-274
1657302519335,-191,-427,-304
1657302519375,-115,-595,-223
1657302519415,121,-436,-113
1657302519455,-687,901,-538
1657302519495,-1429,1522,-811
1657302519535,-2048,1947,-365
1657302519575,-1873,1175,-88
1657302519615,-885,612,-421
1657302519655,-302,277,-563
1657302519695,-461,336,-587
1657302519735,-774,440,-427
1657302519775,-871,339,-365
1657302519815,-852,276,-421
1657302519855,-694,21,-373
1657302519895,-484,-165,-368
1657302519935,-324,-417,-352
1657302519975,-156,-490,-362
1657302520015,-256,-519,-422
1657302520055,-627,-275,-333
1657302520095,-1343,1138,-414
1657302520135,-1751,1344,-651
1657302520175,-1767,1521,-585
1657302520215,-1276,969,-560
1657302520255,-812,561,-512
1657302520295,-705,431,-402
1657302520335,-730,268,-347
1657302520375,-615,100,-314
1657302520415,-610,-35,-338
1657302520455,-511,-88,-341
1657302520495,-313,-310,-288
1657302520535,-134,-458,-243
1657302520575,3,-512,-257
1657302520615,85,-205,-307
1657302520655,-74,193,-192
1657302520695,-857,1942,-228
1657302520735,-2048,2047,-448
1657302520775,-2036,1908,-382
1657302520815,-705,918,-220
1657302520855,-413,633,-459
1657302520895,-681,614,-289
1657302520935,-708,646,-227
1657302520975,-730,547,-187
1657302521015,-762,453,-296
1657302521055,-633,314,-254
1657302521095,-654,198,-313
1657302521135,-477,-7,-367
1657302521175,-155,-277,-403
1657302521215,-93,-398,-523
1657302521255,-364,-241,-350
1657302521295,-722,1451,-386
1657302521335,-1784,2047,-1798
1657302521375,-1054,1524,-817
1657302521415,-686,766,-642
1657302521455,-574,652,-539
1657302521495,-608,450,-437
1657302521535,-572,183,-281
1657302521575,-529,0,-348
1657302521615,-483,-76,-412
1657302521655,-439,-208,-352
1657302521695,-326,-301,-308
1657302521735,-208,-343,-306
1657302521775,60,-98,-315
1657302521815,-528,978,-225
1657302521855,-1482,1977,-1191
1657302521895,-1497,1707,-864
1657302521935,-958,1134,-824
1657302521975,-445,629,-616
1657302522015,-473,513,-574
1657302522055,-555,440,-444
1657302522095,-611,398,-455
1657302522135,-710,419,-515
1657302522175,-783,375,-569
1657302522215,-780,342,-589
1657302522255,-655,111,-479
1657302522295,-602,112,-548
1657302522335,-316,-226,-554
1657302522375,-340,-383,-659
1657302522415,-294,-466,-597
1657302522455,-823,-200,-258
1657302522495,-1083,1390,-158
1657302522535,-1580,1706,-1546
1657302522575,-1043,910,-694
1657302522615,-644,432,-621
1657302522655,-684,365,-477
1657302522695,-689,225,-335
1657302522735,-501,9,-325
1657302522775,-395,-114,-278
1657302522815,-379,-28,-329
1657302522855,-402,55,-345
1657302522895,-403,127,-368
1657302522935,-407,561,-393
1657302522975,-756,1178,-777
1657302523015,-920,1489,-904
1657302523055,-957,1522,-912
1657302523095,-785,1238,-719
1657302523135,-434,915,-617
1657302523175,-315,714,-565
1657302523215,-499,703,-498
1657302523255,-534,613,-453
1657302523295,-424,395,-389
1657302523335,-322,195,-320
1657302523375,-284,122,-265
1657302523415,-423,364,-382
1657302523455,-630,677,-608
1657302523495,-702,718,-729
1657302523535,-804,881,-819
1657302523575,-731,875,-934
1657302523615,-928,988,-821
1657302523655,-792,929,-757
1657302523695,-618,672,-529
1657302523735,-531,538,-447
1657302523775,-514,493,-416
1657302523815,-546,436,-368
1657302523855,-575,411,-384
1657302523895,-554,410,-399
1657302523935,-556,363,-410
1657302523975,-563,420,-547
1657302524015,-607,492,-581
1657302524055,-568,485,-630
1657302524095,-507,463,-674
1657302524135,-527,625,-686
1657302524175,-692,1039,-701
1657302524215,-969,1379,-1097
1657302524255,-660,971,-718
1657302524295,-670,865,-607
1657302524335,-535,743,-519
1657302524375,-464,485,-337
1657302524415,-426,310,-272
1657302524455,-474,305,-328
1657302524495,-520,275,-412
1657302524535,-582,296,-465
1657302524575,-590,415,-602
1657302524615,-685,443,-675
1657302524655,-765,436,-661
1657302524695,-676,456,-839
1657302524735,-714,502,-829
1657302524775,-782,431,-708
1657302524815,-1035,724,-710
1657302524855,-1021,765,-639
1657302524895,-834,610,-512
1657302524935,-720,524,-454
1657302524975,-688,471,-416
1657302525015,-576,323,-387
1657302525055,-578,203,-336
1657302525095,-629,196,-343
1657302525135,-687,297,-454
1657302525175,-783,445,-579
1657302525215,-697,396,-592
1657302525255,-639,352,-608
1657302525295,-631,383,-657
1657302525335,-686,582,-740
1657302525375,-873,767,-746
1657302525415,-891,886,-775
1657302525455,-792,872,-644
1657302525495,-650,750,-551
1657302525535,-521,581,-413
1657302525575,-493,446,-329
1657302525615,-501,376,-325
1657302525655,-521,364,-385
1657302525695,-577,397,-464
1657302525735,-691,494,-545
1657302525775,-746,553,-661
1657302525815,-702,500,-650
1657302525855,-718,467,-648
1657302525895,-790,559,-707
1657302525935,-846,599,-743
1657302525975,-1005,615,-656
1657302526015,-1085,764,-606
1657302526055,-1007,708,-451
1657302526095,-801,604,-384
1657302526135,-678,510,-347
1657302526175,-569,381,-331
1657302526215,-533,252,-306
1657302526255,-579,251,-368
1657302526295,-634,289,-430
1657302526335,-686,354,-518
1657302526375,-692,373,-550
1657302526415,-706,406,-596
1657302526455,-688,376,-587
1657302526495,-726,478,-658
1657302526535,-853,703,-710
1657302526575,-970,914,-779
1657302526615,-825,823,-669
1657302526655,-806,845,-612
1657302526695,-619,679,-500
1657302526735,-411,404,-355
1657302526775,-408,268,-282
1657302526815,-521,318,-344
1657302526855,-607,425,-448
1657302526895,-777,609,-564
1657302526935,-732,571,-569
1657302526975,-686,490,-552
1657302527015,-661,423,-548
1657302527055,-721,445,-603
1657302527095,-802,575,-690
1657302527135,-924,659,-696
1657302527175,-1093,747,-619
1657302527215,-1010,762,-555
1657302527255,-895,684,-446
1657302527295,-754,592,-391
1657302527335,-691,538,-354
1657302527375,-566,406,-329
1657302527415,-516,284,-287
1657302527455,-574,284,-361
1657302527495,-609,317,-436
1657302527535,-731,421,-497
1657302527575,-709,423,-575
1657302527615,-665,455,-625
1657302527655,-563,475,-668
1657302527695,-588,545,-665
1657302527735,-723,726,-682
1657302527775,-877,893,-651
1657302527815,-785,804,-527
1657302527855,-707,719,-456
1657302527895,-599,690,-473
1657302527935,-563,585,-413
1657302527975,-570,502,-379
1657302528015,-548,462,-417
1657302528055,-548,462,-480
1657302528095,-612,530,-521
1657302528135,-662,571,-550
1657302528175,-676,565,-567
1657302528215,-721,558,-590
1657302528255,-737,602,-636
1657302528295,-748,626,-659
1657302528335,-902,760,-622
1657302528375,-1140,998,-613
1657302528415,-956,856,-421
1657302528455,-737,651,-284
1657302528495,-601,556,-293
1657302528535,-562,450,-251
1657302528575,-518,329,-230
1657302528615,-561,325,-306
1657302528655,-592,330,-350
1657302528695,-680,451,-450
1657302528735,-780,537,-497
1657302528775,-769,680,-676
1657302528815,-597,589,-617
1657302528855,-619,646,-569
1657302528895,-685,830,-640
1657302528935,-777,975,-639
1657302528975,-769,907,-489
1657302529015,-626,788,-416
1657302529055,-449,637,-423
1657302529095,-459,541,-384
1657302529135,-503,497,-375
1657302529175,-523,480,-406
1657302529215,-552,495,-439
1657302529255,-614,560,-469
1657302529295,-642,569,-502
1657302529335,-677,566,-510
1657302529375,-745,593,-519
1657302529415,-788,727,-638
1657302529455,-715,703,-673
1657302529495,-901,710,-483
1657302529535,-1196,1094,-508
1657302529575,-962,987,-397
1657302529615,-738,798,-377
1657302529655,-575,573,-296
1657302529695,-491,397,-238
1657302529735,-458,326,-238
1657302529775,-502,287,-265
1657302529815,-556,340,-338
1657302529855,-659,479,-426
1657302529895,-800,649,-556
1657302529935,-680,584,-578
1657302529975,-657,603,-573
1657302530015,-634,671,-562
1657302530055,-618,697,-525
1657302530095,-707,899,-569
1657302530135,-780,933,-459
1657302530175,-791,895,-329
1657302530215,-638,850,-375
1657302530255,-573,707,-328
1657302530295,-568,591,-289
1657302530335,-574,565,-347
1657302530375,-573,514,-349
1657302530415,-599,543,-445
1657302530455,-640,541,-451
1657302530495,-697,517,-442
1657302530535,-760,538,-459
1657302530575,-768,521,-463
1657302530615,-810,625,-484
1657302530655,-899,666,-517
1657302530695,-1205,965,-529
1657302530735,-1142,954,-288
1657302530775,-908,797,-162
1657302530815,-662,663,-291
1657302530855,-598,541,-273
1657302530895,-473,354,-234
1657302530935,-493,297,-278
1657302530975,-511,268,-297
1657302531015,-604,337,-336
1657302531055,-704,447,-370
1657302531095,-782,525,-426
1657302531135,-682,439,-387
1657302531175,-755,634,-464
1657302531215,-810,761,-539
1657302531255,-773,885,-587
1657302531295,-897,1034,-552
1657302531335,-884,1007,-400
1657302531375,-764,912,-341
1657302531415,-577,683,-302
1657302531455,-481,475,-184
1657302531495,-514,436,-249
1657302531535,-553,451,-294
1657302531575,-605,507,-365
1657302531615,-691,628,-508
1657302531655,-751,669,-476
1657302531695,-710,617,-493
1657302531735,-710,587,-472
1657302531775,-770,685,-543
1657302531815,-848,662,-469
1657302531855,-1150,911,-468
1657302531895,-1128,884,-358
1657302531935,-924,671,-226
1657302531975,-788,625,-267
1657302532015,-718,567,-269
1657302532055,-637,465,-262
1657302532095,-602,357,-258
1657302532135,-594,300,-279
1657302532175,-625,310,-316
1657302532215,-635,354,-382
1657302532255,-711,430,-393
1657302532295,-775,565,-488
1657302532335,-643,501,-454
1657302532375,-549,562,-475
1657302532415,-340,598,-416
1657302532455,-389,901,-302
1657302532495,-768,1234,-324
1657302532535,-653,1076,-257
1657302532575,-719,1147,-398
1657302532615,-575,748,-285
1657302532655,-616,673,-221
1657302532695,-669,689,-272
1657302532735,-605,715,-247
1657302532775,-456,714,-291
1657302532815,-353,747,-352
1657302532855,-323,692,-312
1657302532895,-392,760,-319
1657302532935,-706,1066,-324
1657302532975,-803,1061,-299
1657302533015,-1009,1172,-178
1657302533055,-1128,1296,-82
1657302533095,-962,1193,105
1657302533135,-815,1040,234
1657302533175,-687,856,223
1657302533215,-649,834,181
1657302533255,-638,727,81
1657302533295,-517,514,76
1657302533335,-451,423,29
1657302533375,-420,362,2
1657302533415,-224,259,-79
1657302533455,-69,309,-217
1657302533495,93,190,-127
1657302533535,126,497,-5
1657302533575,298,641,189
1657302533615,501,1129,618
1657302533655,444,2017,1068
1657302533695,103,2047,1146
1657302533735,-114,2047,1292
1657302533775,-484,1855,1228
1657302533815,-511,1414,684
1657302533855,-283,1213,354
1657302533895,-163,1146,62
1657302533935,-46,998,-81
1657302533975,-25,959,-107
1657302534015,-185,1050,31
1657302534055,-250,1058,201
1657302534095,-235,1106,338
1657302534135,-202,1249,330
1657302534175,-60,1383,335
1657302534215,-62,1408,444
1657302534255,-293,1439,349
1657302534295,-154,1520,524
1657302534335,15,1617,656
1657302534375,119,1450,740
1657302534415,162,1162,780
1657302534455,244,868,681
1657302534495,270,678,479
1657302534535,200,564,312
1657302534575,171,593,135
1657302534615,197,620,64
1657302534655,210,723,156
1657302534695,231,874,254
1657302534735,308,1049,339
1657302534775,337,1352,474
1657302534815,57,1495,525
1657302534855,-219,1634,517
1657302534895,-343,1665,295
1657302534935,-314,1474,330
1657302534975,-358,1139,371
1657302535015,-340,998,276
1657302535055,-248,936,148
1657302535095,-154,904,89
1657302535135,-45,924,75
1657302535175,-43,951,58
1657302535215,-139,1038,143
1657302535255,-102,1160,145
1657302535295,-137,1292,135
1657302535335,-80,1383,298
1657302535375,-171,1282,306
1657302535415,-290,1495,65
1657302535455,-146,1435,361
1657302535495,-124,1269,687
1657302535535,-51,1158,737
1657302535575,11,1073,548
1657302535615,71,1130,299
1657302535655,95,1015,155
1657302535695,124,790,304
1657302535735,168,547,326
1657302535775,207,393,274
1657302535815,233,484,257
1657302535855,312,743,278
1657302535895,370,1128,332
1657302535935,374,1470,493
1657302535975,121,1528,714
1657302536015,-266,1717,633
1657302536055,-379,1787,171
1657302536095,-344,1371,226
1657302536135,-347,1077,257
1657302536175,-213,897,102
1657302536215,-168,777,122
1657302536255,-195,866,151
1657302536295,-232,993,142
1657302536335,-259,1063,188
1657302536375,-258,1084,181
1657302536415,-168,1148,339
1657302536455,-151,1295,233
1657302536495,-121,1468,257
1657302536535,-231,1498,312
1657302536575,-263,1623,383
1657302536615,-75,1529,587
1657302536655,14,1375,748
1657302536695,126,1077,700
1657302536735,128,867,537
1657302536775,112,750,387
1657302536815,145,639,287
1657302536855,185,525,220
1657302536895,167,457,187
1657302536935,124,514,203
1657302536975,175,705,241
1657302537015,308,1082,246
1657302537055,353,1473,221
1657302537095,227,1653,475
1657302537135,-66,1592,675
1657302537175,-387,1550,615
1657302537215,-355,1457,267
1657302537255,-217,1168,105
1657302537295,-138,913,145
1657302537335,-102,813,104
1657302537375,-87,846,113
1657302537415,-134,925,164
1657302537455,-178,1023,197
1657302537495,-196,1079,229
1657302537535,-96,1084,230
1657302537575,-11,1188,244
1657302537615,-42,1346,184
1657302537655,-15,1295,357
1657302537695,-179,1214,310
1657302537735,-196,1301,241
1657302537775,-128,1356,317
1657302537815,-79,1248,440
1657302537855,-66,1110,503
1657302537895,-21,1028,476
1657302537935,20,956,480
1657302537975,50,872,460
1657302538015,64,783,373
1657302538055,90,719,276
1657302538095,150,676,268
