timestamp,accel_X,accel_Y,accel_Z
1657302653655,-1014,-117,-28
1657302653695,-1007,-132,-28
1657302653735,-1014,-137,-18
1657302653775,-1038,-132,-6
1657302653815,-1031,-126,-14
1657302653855,-1037,-132,-20
1657302653895,-1052,-116,-14
1657302653935,-1021,-136,-16
1657302653975,-1019,-133,-23
1657302654015,-1044,-130,-2
1657302654055,-1016,-146,-4
1657302654095,-1033,-130,-6
1657302654135,-1012,-136,-12
1657302654175,-1020,-142,-19
1657302654215,-1018,-134,-12
1657302654255,-1062,-122,-1
1657302654295,-1044,-91,-41
1657302654335,-969,-114,-58
1657302654375,-990,-159,-4
1657302654415,-1010,-181,19
1657302654455,-1070,-163,16
1657302654495,-1057,-155,14
1657302654535,-1033,-124,-29
1657302654575,-1027,-102,-35
1657302654615,-1027,-117,-7
1657302654655,-1022,-120,6
1657302654695,-1020,-112,-3
1657302654735,-1004,-114,-2
1657302654775,-1016,-113,-4
1657302654815,-1031,-116,-14
1657302654855,-1046,-119,-11
1657302654895,-1036,-123,-19
1657302654935,-1040,-119,-20
1657302654975,-1015,-119,-30
1657302655015,-1033,-124,-13
1657302655055,-1015,-123,-17
1657302655095,-1004,-133,-14
1657302655135,-1028,-126,-7
1657302655175,-1033,-126,-10
1657302655215,-1020,-129,-8
1657302655255,-1025,-124,-18
1657302655295,-1034,-121,-27
1657302655335,-1031,-152,-24
1657302655375,-1055,-165,20
1657302655415,-1076,-138,6
1657302655455,-1055,-127,-6
1657302655495,-1053,-99,-4
1657302655535,-1009,-56,-31
1657302655575,-953,-49,-77
1657302655615,-933,-88,-79
1657302655655,-977,-144,-21
1657302655695,-1072,-145,45
1657302655735,-1103,-139,81
1657302655775,-1030,-132,1
1657302655815,-1030,-107,-32
1657302655855,-1020,-94,-31
1657302655895,-1005,-83,-62
1657302655935,-1025,-80,-54
1657302655975,-1050,-92,-26
1657302656015,-1032,-106,-14
1657302656055,-1024,-90,-11
1657302656095,-979,-138,-21
1657302656135,-1017,-170,28
1657302656175,-1042,-163,32
1657302656215,-1065,-145,24
1657302656255,-1057,-113,-3
1657302656295,-1026,-112,-10
1657302656335,-1025,-107,-14
1657302656375,-1025,-113,8
1657302656415,-1011,-117,-3
1657302656455,-1027,-106,0
1657302656495,-1040,-104,-7
1657302656535,-1047,-104,9
1657302656575,-1033,-89,-20
1657302656615,-1060,-56,1
1657302656655,-982,-79,-37
1657302656695,-977,-133,-17
1657302656735,-989,-165,17
1657302656775,-1038,-166,34
1657302656815,-1072,-139,10
1657302656855,-1069,-138,5
1657302656895,-1041,-130,-3
1657302656935,-1028,-102,-18
1657302656975,-1035,-92,-7
1657302657015,-1022,-94,-1
1657302657055,-1009,-101,1
1657302657095,-985,-118,6
1657302657135,-993,-128,4
1657302657175,-1032,-110,1
1657302657215,-1051,-123,17
1657302657255,-1060,-99,5
1657302657295,-1034,-82,-27
1657302657335,-1021,-95,-14
1657302657375,-1029,-101,-4
1657302657415,-1031,-105,11
1657302657455,-1037,-106,20
1657302657495,-1010,-107,2
1657302657535,-983,-111,-3
1657302657575,-1034,-99,7
1657302657615,-1032,-91,-20
1657302657655,-1033,-89,-24
1657302657695,-1009,-97,-28
1657302657735,-991,-63,-20
1657302657775,-957,-65,-28
1657302657815,-906,-85,-10
1657302657855,-835,-85,-32
1657302657895,-801,-53,-38
1657302657935,-1116,-108,203
1657302657975,-908,-1,-128
1657302658015,-884,-17,-134
1657302658055,-731,254,-495
1657302658095,-614,548,-1026
1657302658135,-373,487,-1234
1657302658175,-361,517,-1018
1657302658215,-398,335,-965
1657302658255,-430,313,-788
1657302658295,-370,468,-952
1657302658335,-233,400,-963
1657302658375,-216,354,-976
1657302658415,-110,327,-1076
1657302658455,-202,283,-1074
1657302658495,-173,162,-925
1657302658535,-114,86,-802
1657302658575,-93,142,-672
1657302658615,-275,1339,-1452
1657302658655,-135,315,-1441
1657302658695,-158,555,-1474
1657302658735,-147,272,-1224
1657302658775,-301,122,-879
1657302658815,-381,52,-742
1657302658855,-648,34,-533
1657302658895,-565,142,-682
1657302658935,-618,-331,412
1657302658975,-1201,-8,1552
1657302659015,-492,-437,803
1657302659055,-582,-472,469
1657302659095,-487,-560,593
1657302659135,-539,-685,475
1657302659175,-386,-738,338
1657302659215,-357,-721,277
1657302659255,-394,-783,282
1657302659295,-305,-804,283
1657302659335,-382,-832,208
1657302659375,-386,-861,211
1657302659415,-374,-834,212
1657302659455,-353,-818,141
1657302659495,-261,-643,34
1657302659535,-477,-640,246
1657302659575,-603,43,-200
1657302659615,-755,102,-634
1657302659655,-1044,521,-295
1657302659695,-994,586,-421
1657302659735,-746,577,-525
1657302659775,-456,575,-479
1657302659815,-138,567,-563
1657302659855,78,840,-711
1657302659895,49,858,-723
1657302659935,43,1077,-796
1657302659975,153,1064,-825
1657302660015,302,828,-597
1657302660055,263,800,-518
1657302660095,269,844,-592
1657302660135,242,786,-522
1657302660175,194,874,-466
1657302660215,192,922,-611
1657302660255,195,831,-503
1657302660295,264,878,-422
1657302660335,224,898,-421
1657302660375,103,852,-376
1657302660415,-49,889,-307
1657302660455,-15,848,-205
1657302660495,181,687,-51
1657302660535,278,640,223
1657302660575,176,773,365
1657302660615,55,972,514
1657302660655,-63,1213,713
1657302660695,-278,1345,1066
1657302660735,-722,1728,1165
1657302660775,-853,1788,450
1657302660815,-471,1380,333
1657302660855,-373,1139,294
1657302660895,-381,1024,285
1657302660935,-318,993,289
1657302660975,-340,1034,379
1657302661015,-306,1104,365
1657302661055,-234,1189,248
1657302661095,-217,1042,340
1657302661135,-316,992,483
1657302661175,-385,1118,487
1657302661215,-303,1129,515
1657302661255,-321,1194,434
1657302661295,-197,1013,400
1657302661335,-135,875,477
1657302661375,-63,735,450
1657302661415,-25,630,440
1657302661455,-7,622,404
1657302661495,5,670,353
1657302661535,-56,773,260
1657302661575,-77,860,236
1657302661615,-77,931,270
1657302661655,-107,1002,373
1657302661695,-169,1018,460
1657302661735,-270,1094,486
1657302661775,-322,1181,471
1657302661815,-342,1266,391
1657302661855,-479,1451,290
1657302661895,-523,1306,375
1657302661935,-549,1188,645
1657302661975,-478,1146,574
1657302662015,-186,1193,521
1657302662055,-75,1256,208
1657302662095,333,965,-510
1657302662135,-670,986,815
1657302662175,-340,926,421
1657302662215,-627,1618,10
1657302662255,-612,1301,68
1657302662295,-1254,1697,2046
1657302662335,620,469,1350
1657302662375,1724,-35,-919
1657302662415,445,560,-1005
1657302662455,64,834,-104
1657302662495,-328,865,-415
1657302662535,-569,999,272
1657302662575,-663,1052,817
1657302662615,-339,1312,653
1657302662655,-535,1445,561
1657302662695,-650,1742,-104
1657302662735,-348,856,303
1657302662775,-207,793,306
1657302662815,-555,899,546
1657302662855,-373,717,515
1657302662895,-333,844,533
1657302662935,-403,844,688
1657302662975,-195,708,476
1657302663015,-326,769,584
1657302663055,-286,795,595
1657302663095,-221,708,551
1657302663135,-445,911,700
1657302663175,-338,830,595
1657302663215,-283,799,443
1657302663255,-349,693,538
1657302663295,-302,731,571
1657302663335,-372,823,529
1657302663375,-390,843,637
1657302663415,-359,804,557
1657302663455,-282,818,289
1657302663495,-346,843,649
1657302663535,-309,643,379
1657302663575,-459,929,420
1657302663615,-417,940,414
1657302663655,-579,920,514
1657302663695,-654,782,521
1657302663735,-794,894,563
1657302663775,-834,950,493
1657302663815,-806,655,515
1657302663855,-1022,757,482
1657302663895,-1153,1030,378
1657302663935,-1291,1237,397
1657302663975,-1080,1266,539
1657302664015,-441,1012,288
1657302664055,-70,579,120
1657302664095,186,308,4
1657302664135,547,305,-156
1657302664175,730,123,-417
1657302664215,379,724,-65
1657302664255,349,1043,161
1657302664295,-591,2047,796
1657302664335,-1548,2047,1312
1657302664375,-1745,2047,1520
1657302664415,-1204,1196,588
1657302664455,-1296,971,-31
1657302664495,-1349,695,-321
1657302664535,-1159,342,-377
1657302664575,-882,156,-272
1657302664615,-720,120,-47
1657302664655,-628,181,113
1657302664695,-673,498,284
1657302664735,-873,798,604
1657302664775,-1455,1321,963
1657302664815,-1392,1593,778
1657302664855,-1048,1233,622
1657302664895,-698,1005,354
1657302664935,-375,696,258
1657302664975,-99,578,134
1657302665015,106,506,46
1657302665055,238,525,-138
1657302665095,253,449,-111
1657302665135,100,726,-57
1657302665175,-258,1038,74
1657302665215,-378,1254,279
1657302665255,-481,1403,428
1657302665295,-618,1479,722
1657302665335,-866,1484,942
1657302665375,-811,1357,898
1657302665415,-617,1161,623
1657302665455,-586,1027,436
1657302665495,-577,873,378
1657302665535,-571,767,317
1657302665575,-546,761,235
1657302665615,-503,745,209
1657302665655,-544,732,227
1657302665695,-602,852,274
1657302665735,-624,896,354
1657302665775,-645,967,553
1657302665815,-783,1317,659
1657302665855,-693,1352,759
1657302665895,-604,1414,649
1657302665935,-470,1172,558
1657302665975,-313,898,470
1657302666015,-91,576,363
1657302666055,121,443,270
1657302666095,133,451,69
1657302666135,249,480,-71
1657302666175,291,584,-163
1657302666215,366,720,66
1657302666255,241,1335,342
1657302666295,-799,2047,743
1657302666335,-957,1945,892
1657302666375,-1076,1332,1114
1657302666415,-1030,868,721
1657302666455,-962,658,231
1657302666495,-973,551,-84
1657302666535,-986,596,40
1657302666575,-859,494,311
1657302666615,-1073,836,810
1657302666655,-1468,1783,1377
1657302666695,-1224,2047,1342
1657302666735,-499,1682,1023
1657302666775,105,842,664
1657302666815,419,299,266
1657302666855,453,113,84
1657302666895,522,32,-44
1657302666935,488,204,-103
1657302666975,534,544,-168
1657302667015,603,1299,49
1657302667055,410,1831,788
1657302667095,-1474,2047,1766
1657302667135,-1359,1567,1376
1657302667175,-1362,1177,996
1657302667215,-1207,823,301
1657302667255,-1075,564,-52
1657302667295,-994,376,-227
1657302667335,-817,298,-240
1657302667375,-631,194,-153
1657302667415,-805,391,101
1657302667455,-1356,1022,681
1657302667495,-2048,2047,1163
1657302667535,-1351,2047,1368
1657302667575,-554,1667,1209
1657302667615,-23,866,880
1657302667655,236,413,521
1657302667695,407,181,169
1657302667735,721,87,-170
1657302667775,752,143,-298
1657302667815,650,530,-132
1657302667855,721,975,73
1657302667895,-882,2047,557
1657302667935,-2048,2047,796
1657302667975,-2048,1483,996
1657302668015,-1269,638,164
1657302668055,-1194,485,-175
1657302668095,-1057,183,-248
1657302668135,-907,0,-177
1657302668175,-747,5,-138
1657302668215,-727,139,-37
1657302668255,-1222,386,320
1657302668295,-2048,1378,788
1657302668335,-2048,2047,585
1657302668375,-1957,2047,453
1657302668415,-603,1473,270
1657302668455,393,511,225
1657302668495,617,129,104
1657302668535,683,-33,118
1657302668575,825,21,129
1657302668615,855,283,129
1657302668655,922,967,-37
1657302668695,87,2047,407
1657302668735,-2048,2047,1346
1657302668775,-2048,2017,853
1657302668815,-1743,706,400
1657302668855,-1627,316,55
1657302668895,-1454,-158,-186
1657302668935,-1274,-178,-277
1657302668975,-897,96,-331
1657302669015,-791,148,-134
1657302669055,-1532,326,493
1657302669095,-2048,1997,1345
1657302669135,-2048,2047,957
1657302669175,-861,1846,587
1657302669215,324,856,145
1657302669255,603,195,166
1657302669295,829,-59,122
1657302669335,1030,55,161
1657302669375,900,487,-44
1657302669415,809,889,120
1657302669455,-214,2032,828
1657302669495,-2048,2047,1463
1657302669535,-2048,1436,1049
1657302669575,-1359,452,175
1657302669615,-1152,274,-226
1657302669655,-1068,20,-289
1657302669695,-844,-189,-327
1657302669735,-558,-140,-308
1657302669775,-761,58,-110
1657302669815,-1657,298,561
1657302669855,-2048,1765,1220
1657302669895,-1823,1996,972
1657302669935,-637,1645,543
1657302669975,72,983,116
1657302670015,396,502,71
1657302670055,553,307,150
1657302670095,591,345,171
1657302670135,692,459,118
1657302670175,748,799,192
1657302670215,461,1530,585
1657302670255,-2048,2047,1341
1657302670295,-2048,2047,1237
1657302670335,-1632,735,566
1657302670375,-1394,435,32
1657302670415,-1160,223,-331
1657302670455,-980,71,-521
1657302670495,-702,107,-561
1657302670535,-597,-76,-225
1657302670575,-733,-107,274
1657302670615,-2048,1353,1180
1657302670655,-2048,2047,1281
1657302670695,-1210,2047,837
1657302670735,-261,1372,661
1657302670775,329,653,489
1657302670815,621,351,335
1657302670855,979,93,206
1657302670895,1380,61,3
1657302670935,1187,659,144
1657302670975,730,1589,693
1657302671015,-2048,2047,2046
1657302671055,-2048,1792,1292
1657302671095,-1480,451,506
1657302671135,-1318,207,-110
1657302671175,-1316,-132,-265
1657302671215,-1182,-293,-251
1657302671255,-717,-182,-212
1657302671295,-692,-63,-60
1657302671335,-1616,397,491
1657302671375,-2048,2047,1350
1657302671415,-2048,2047,1244
1657302671455,-654,1717,850
1657302671495,316,959,521
1657302671535,854,473,368
1657302671575,1203,92,220
1657302671615,1378,109,174
1657302671655,1097,593,219
1657302671695,398,1716,580
1657302671735,-2048,2047,1454
1657302671775,-2048,1744,988
1657302671815,-1471,539,165
1657302671855,-1350,307,-228
1657302671895,-1251,-66,-329
1657302671935,-1072,-456,-179
1657302671975,-733,-375,-169
1657302672015,-755,0,-88
1657302672055,-1435,139,266
1657302672095,-2048,2046,1257
1657302672135,-2048,2047,1038
1657302672175,-824,2037,689
1657302672215,106,1150,481
1657302672255,536,472,455
1657302672295,987,63,286
1657302672335,1281,-14,112
1657302672375,1139,280,10
1657302672415,975,1010,-26
1657302672455,-861,2047,699
1657302672495,-2048,2047,1036
1657302672535,-2032,1304,648
1657302672575,-1329,452,88
1657302672615,-1252,188,-101
1657302672655,-1241,94,-191
1657302672695,-1017,-222,-248
1657302672735,-826,-151,-172
1657302672775,-843,-19,-69
1657302672815,-1757,577,405
1657302672855,-2048,2047,867
1657302672895,-1817,2047,511
1657302672935,-841,1545,367
1657302672975,-198,840,329
1657302673015,334,393,193
1657302673055,455,252,74
1657302673095,526,248,148
1657302673135,683,422,95
1657302673175,945,626,83
1657302673215,562,1409,437
1657302673255,-2048,2047,1329
1657302673295,-2048,2047,716
1657302673335,-1784,870,331
1657302673375,-1616,502,-13
1657302673415,-1453,111,-180
1657302673455,-1161,-227,-283
1657302673495,-690,-148,-411
1657302673535,-550,54,-383
1657302673575,-757,-77,-87
1657302673615,-2048,396,607
1657302673655,-2048,2047,1000
1657302673695,-2034,2047,806
1657302673735,-1119,1696,644
1657302673775,-210,1178,513
1657302673815,427,625,151
1657302673855,640,249,112
1657302673895,928,15,71
1657302673935,912,139,59
1657302673975,998,465,-6
1657302674015,258,1625,122
1657302674055,-2048,2047,1057
1657302674095,-2048,1893,786
1657302674135,-1517,668,186
1657302674175,-1323,389,-108
1657302674215,-1217,93,-122
1657302674255,-1000,-65,-284
1657302674295,-844,-104,-272
1657302674335,-849,-31,-134
1657302674375,-1375,229,166
1657302674415,-2048,920,542
1657302674455,-2048,1975,554
1657302674495,-2048,1967,530
1657302674535,-1742,1600,245
1657302674575,-906,1010,230
1657302674615,-97,739,247
1657302674655,159,521,-26
1657302674695,246,266,-234
1657302674735,81,208,-260
1657302674775,-28,-173,-159
1657302674815,-198,-926,-349
1657302674855,-868,-1248,210
1657302674895,-945,-1250,588
1657302674935,-1259,-1367,191
1657302674975,-319,-1042,-113
1657302675015,-286,-807,1
1657302675055,-130,-516,73
1657302675095,-2,-56,40
1657302675135,177,163,-182
1657302675175,127,-231,-112
1657302675215,-117,-1462,288
1657302675255,-1160,-1635,-122
1657302675295,-1748,-1774,-167
1657302675335,-1361,-1250,-445
1657302675375,-706,-189,-715
1657302675415,-156,87,-629
1657302675455,-20,82,-350
1657302675495,-42,476,-58
1657302675535,191,421,-13
1657302675575,320,467,128
1657302675615,-496,1135,277
1657302675655,-2048,1723,1401
1657302675695,-2048,896,2046
1657302675735,-2048,74,817
1657302675775,-1421,-124,117
1657302675815,-1037,-214,-263
1657302675855,-889,-142,-255
1657302675895,-1105,-240,49
1657302675935,-781,-398,125
1657302675975,-691,-221,-24
1657302676015,-1929,-73,514
1657302676055,-2048,949,1487
1657302676095,-2048,1196,898
1657302676135,-1458,1109,455
1657302676175,-547,628,236
1657302676215,45,294,82
1657302676255,289,135,125
1657302676295,395,218,134
1657302676335,762,199,-67
1657302676375,818,348,-78
1657302676415,410,855,-21
1657302676455,-2048,2047,1093
1657302676495,-2048,1784,1010
1657302676535,-1837,705,280
1657302676575,-1274,211,-133
1657302676615,-1198,46,-229
1657302676655,-1059,-209,-280
1657302676695,-1097,-380,-281
1657302676735,-1049,-132,-241
1657302676775,-1241,30,-87
1657302676815,-2048,644,484
1657302676855,-2048,1473,809
1657302676895,-2048,1619,746
1657302676935,-980,1311,344
1657302676975,76,780,149
1657302677015,482,195,138
1657302677055,600,-67,95
1657302677095,589,100,126
1657302677135,582,247,91
1657302677175,717,601,7
1657302677215,-786,1879,361
1657302677255,-2048,2047,719
1657302677295,-2048,1569,796
1657302677335,-1402,567,229
1657302677375,-1141,225,-26
1657302677415,-1161,62,-61
1657302677455,-1074,-125,-132
1657302677495,-930,-246,-275
1657302677535,-1075,-71,-238
1657302677575,-1856,383,25
1657302677615,-2048,1064,125
1657302677655,-2048,1394,-370
1657302677695,2046,-561,-1379
1657302677735,-1134,809,-586
1657302677775,-575,1195,-213
1657302677815,-341,726,398
1657302677855,-347,206,434
1657302677895,-217,562,-281
1657302677935,406,-39,-572
1657302677975,555,-161,-74
1657302678015,146,-76,-80
1657302678055,-1496,1880,-595
1657302678095,-2048,1646,-746
1657302678135,-1831,729,-815
1657302678175,-1319,335,-822
1657302678215,-1173,-9,-639
1657302678255,-1161,-139,-330
1657302678295,-770,-291,-308
1657302678335,-651,-101,-456
1657302678375,-1209,28,-374
1657302678415,-2048,410,-185
1657302678455,-2048,733,-598
1657302678495,-1693,711,-617
1657302678535,-1015,666,-535
1657302678575,-384,406,-259
1657302678615,47,287,-147
1657302678655,167,392,-157
1657302678695,110,533,-164
1657302678735,-207,640,-171
1657302678775,-658,466,-323
1657302678815,-1321,606,-741
1657302678855,-1533,388,-791
1657302678895,-1606,151,-506
1657302678935,-1435,-21,-502
1657302678975,-1083,-107,-651
1657302679015,-922,-230,-516
1657302679055,-811,-348,-322
1657302679095,-763,-460,-58
1657302679135,-902,-176,-156
1657302679175,-1183,-166,-304
1657302679215,-2048,103,-334
1657302679255,-2048,481,-577
1657302679295,-1866,536,-683
1657302679335,-937,565,-640
1657302679375,-15,502,-376
1657302679415,329,234,-99
1657302679455,493,85,106
1657302679495,500,242,111
1657302679535,517,471,85
1657302679575,295,673,-138
1657302679615,-2048,2047,-312
1657302679655,-2048,1731,-314
1657302679695,-1669,346,-250
1657302679735,-1329,73,-470
1657302679775,-1141,-93,-354
1657302679815,-812,-342,-190
1657302679855,-569,-424,-210
1657302679895,-506,-274,-275
1657302679935,-853,-151,-217
1657302679975,-2048,-149,65
1657302680015,-2048,1323,342
1657302680055,-2048,1632,223
1657302680095,-1241,1486,-212
1657302680135,-525,1093,-484
1657302680175,-54,557,-74
1657302680215,517,20,255
1657302680255,997,-222,452
1657302680295,1365,-76,340
1657302680335,1476,389,158
1657302680375,-231,2047,203
1657302680415,-2048,2047,260
1657302680455,-2048,1601,381
1657302680495,-1843,476,100
1657302680535,-1432,-60,3
1657302680575,-1468,-343,-81
1657302680615,-1111,-249,-414
1657302680655,-676,-370,-394
1657302680695,-907,-307,-78
1657302680735,-2048,418,334
1657302680775,-2048,1946,407
1657302680815,-2048,2047,674
1657302680855,-1004,1995,322
1657302680895,339,1126,66
1657302680935,602,529,252
1657302680975,843,105,350
1657302681015,1278,44,314
1657302681055,1420,301,310
1657302681095,520,1427,274
1657302681135,-2048,2047,1285
1657302681175,-2048,1523,745
1657302681215,-1550,281,-128
1657302681255,-1024,-247,-359
1657302681295,-838,-399,-332
1657302681335,-859,-337,-335
1657302681375,-848,-291,-235
1657302681415,-814,-206,-158
1657302681455,-2047,59,310
1657302681495,-2048,1513,1386
1657302681535,-2048,2025,1257
1657302681575,-939,1725,944
1657302681615,512,655,585
1657302681655,1016,146,458
1657302681695,1966,-47,347
1657302681735,2046,62,495
1657302681775,1513,1060,756
1657302681815,124,2047,1491
1657302681855,-2048,2047,2046
1657302681895,-2048,1932,969
1657302681935,-1953,584,85
1657302681975,-1359,27,-326
1657302682015,-1240,-160,-520
1657302682055,-918,-248,-549
1657302682095,-487,-304,-372
1657302682135,-509,-249,-181
1657302682175,-2048,226,232
1657302682215,-2048,1764,1312
1657302682255,-2048,2047,1238
1657302682295,-759,2047,724
1657302682335,348,918,761
1657302682375,963,477,549
1657302682415,1524,24,419
1657302682455,1801,-12,393
1657302682495,1179,585,507
1657302682535,828,2032,737
1657302682575,-2048,2047,1920
1657302682615,-2048,2047,1417
1657302682655,-2048,1107,1077
1657302682695,-1750,254,320
1657302682735,-1593,218,-543
1657302682775,-1265,87,-1020
1657302682815,-817,-173,-802
1657302682855,-769,-144,-379
1657302682895,-1473,154,333
1657302682935,-2048,1681,1308
1657302682975,-2048,2047,1498
1657302683015,-1339,2047,1084
1657302683055,-318,1457,535
1657302683095,469,715,297
1657302683135,959,351,208
1657302683175,1668,54,171
1657302683215,1652,277,-2
1657302683255,1366,965,-53
1657302683295,389,2047,616
1657302683335,-2048,2047,1655
1657302683375,-2048,2047,769
1657302683415,-1747,694,352
1657302683455,-1400,186,7
1657302683495,-1331,-185,-163
1657302683535,-924,-336,-610
1657302683575,-548,-346,-629
1657302683615,-791,-361,-374
1657302683655,-1779,204,339
1657302683695,-2048,1859,473
1657302683735,-2048,2047,350
1657302683775,-1364,2047,202
1657302683815,-391,1503,171
1657302683855,272,830,54
1657302683895,681,315,26
1657302683935,1329,47,73
1657302683975,1376,128,116
1657302684015,807,794,0
1657302684055,-333,2047,35
1657302684095,-2048,2047,45
1657302684135,-2048,2047,346
1657302684175,-2048,980,194
1657302684215,-1277,300,126
1657302684255,-1479,-27,-224
1657302684295,-993,-207,-439
1657302684335,-531,-351,-529
1657302684375,-435,-342,-522
1657302684415,-979,-136,-234
1657302684455,-2048,934,423
1657302684495,-2048,2047,574
1657302684535,-2034,2047,504
1657302684575,-1001,1639,268
1657302684615,-251,1063,235
1657302684655,404,640,340
1657302684695,613,368,189
1657302684735,1260,394,51
1657302684775,1434,310,-9
1657302684815,1228,1170,34
1657302684855,-2048,2047,575
1657302684895,-2048,2047,561
1657302684935,-2048,864,87
1657302684975,-1188,88,-135
1657302685015,-1071,-215,-64
1657302685055,-1082,-628,251
1657302685095,-717,-694,78
1657302685135,-539,-296,-175
1657302685175,-978,-114,104
1657302685215,-2048,573,775
1657302685255,-2048,2047,379
1657302685295,-2048,1907,132
1657302685335,-873,1476,-251
1657302685375,102,804,-14
1657302685415,549,491,186
1657302685455,722,240,230
1657302685495,1029,234,232
1657302685535,1170,209,224
1657302685575,1281,716,346
1657302685615,-2048,2047,448
1657302685655,-2048,2047,-46
1657302685695,-1964,732,-443
1657302685735,-1129,135,-315
1657302685775,-904,-164,-252
1657302685815,-845,-278,-133
1657302685855,-591,-633,-148
1657302685895,-762,-393,-180
1657302685935,-1450,-62,-11
1657302685975,-2048,901,341
1657302686015,-2048,1975,766
1657302686055,-1871,1747,478
1657302686095,-890,1248,87
1657302686135,-135,699,146
1657302686175,392,561,207
1657302686215,521,526,275
1657302686255,1091,471,132
1657302686295,1566,297,180
1657302686335,849,1603,8
1657302686375,-2048,2047,533
1657302686415,-2048,1911,411
1657302686455,-1678,507,182
1657302686495,-1205,-63,-45
1657302686535,-1097,-583,5
1657302686575,-964,-125,-246
1657302686615,-843,9,-698
1657302686655,-1098,-85,-477
1657302686695,-1461,31,68
1657302686735,-2048,917,463
1657302686775,-2048,1877,515
1657302686815,-1797,1713,897
1657302686855,-782,1487,441
1657302686895,89,973,26
1657302686935,667,421,-37
1657302686975,707,37,123
1657302687015,864,123,187
1657302687055,998,652,-91
1657302687095,706,1461,-172
1657302687135,-2048,2047,1348
1657302687175,-2048,2047,586
1657302687215,-1973,707,266
1657302687255,-1484,177,73
1657302687295,-1318,-162,-32
1657302687335,-1251,-504,-13
1657302687375,-1024,-436,-50
1657302687415,-579,-287,-260
1657302687455,-769,-257,-86
1657302687495,-2048,260,442
1657302687535,-2048,1520,904
1657302687575,-2048,2047,658
1657302687615,-1090,1714,8
1657302687655,-271,968,48
1657302687695,300,460,333
1657302687735,583,98,384
1657302687775,708,103,223
1657302687815,844,421,-57
1657302687855,887,828,-222
1657302687895,804,1342,476
1657302687935,-2048,2047,1692
1657302687975,-2048,2047,474
1657302688015,-1436,853,101
1657302688055,-1083,434,-119
1657302688095,169,561,-446
1657302688135,-1147,-346,-285
1657302688175,-872,-473,-142
1657302688215,-875,-30,-266
1657302688255,-1094,-167,-20
1657302688295,-2048,1357,573
1657302688335,-2048,2047,555
1657302688375,-1663,2047,534
1657302688415,-701,1589,325
1657302688455,175,799,266
1657302688495,503,263,172
1657302688535,648,135,274
1657302688575,985,299,192
1657302688615,1163,438,226
1657302688655,1341,566,365
1657302688695,-1062,2047,653
1657302688735,-2048,2047,-30
1657302688775,-2048,1591,-314
1657302688815,-1357,315,-232
1657302688855,-947,-84,-421
1657302688895,-822,-3,-458
1657302688935,-663,-299,-346
1657302688975,-665,-305,-281
1657302689015,-967,-87,-245
1657302689055,-2048,403,188
1657302689095,-2048,1340,392
1657302689135,-2048,1779,427
1657302689175,-1158,1504,383
1657302689215,-91,1113,56
1657302689255,257,732,33
1657302689295,672,423,37
1657302689335,814,191,111
1657302689375,572,397,271
1657302689415,458,769,213
1657302689455,-1016,2047,177
1657302689495,-2048,2047,84
1657302689535,-2048,909,235
1657302689575,-1797,522,-2
1657302689615,-1323,179,-329
1657302689655,-967,103,-455
1657302689695,-691,-89,-258
1657302689735,-414,-326,-181
1657302689775,-375,-367,-129
1657302689815,-1436,-143,34
1657302689855,-2048,1437,787
1657302689895,-2048,1702,709
1657302689935,-1328,1544,382
1657302689975,-582,1085,211
1657302690015,26,630,128
1657302690055,350,337,149
1657302690095,599,170,178
1657302690135,1212,269,200
1657302690175,1296,502,142
1657302690215,809,2029,533
1657302690255,-2048,2047,588
1657302690295,-2048,1624,714
1657302690335,-2048,674,205
1657302690375,-1315,175,-114
1657302690415,-993,-234,14
1657302690455,-1006,-335,-170
1657302690495,-800,-232,-308
1657302690535,-616,-221,-340
1657302690575,-636,-813,-287
1657302690615,-2048,632,520
1657302690655,-2048,1827,710
1657302690695,-1964,1978,681
1657302690735,-860,1617,348
1657302690775,-25,803,211
1657302690815,407,300,214
1657302690855,686,94,240
1657302690895,763,309,226
1657302690935,1081,565,59
1657302690975,1042,1230,14
1657302691015,-2048,2047,437
1657302691055,-2048,2047,450
1657302691095,-1758,1004,196
1657302691135,-1408,501,-13
1657302691175,-1425,122,2
1657302691215,-1314,-245,-37
1657302691255,-1001,-549,-97
1657302691295,-669,-403,-259
1657302691335,-752,-329,-252
1657302691375,-2048,642,266
1657302691415,-2048,1720,721
1657302691455,-1876,1958,636
1657302691495,-1097,1665,461
1657302691535,-349,1057,313
1657302691575,99,563,291
1657302691615,355,300,280
1657302691655,506,289,367
1657302691695,1233,389,251
1657302691735,1352,845,64
1657302691775,-238,2047,476
1657302691815,-2048,2047,786
1657302691855,-2048,1880,385
1657302691895,-1782,521,45
1657302691935,-971,412,416
1657302691975,-1135,-470,-198
1657302692015,-825,-775,-387
1657302692055,-624,-658,-342
1657302692095,-1131,-186,-104
1657302692135,-2048,417,204
1657302692175,-2048,1532,371
1657302692215,-2048,2047,199
1657302692255,-1384,2028,-54
1657302692295,-591,1113,312
1657302692335,19,669,479
1657302692375,343,418,381
1657302692415,842,185,398
1657302692455,1386,29,266
1657302692495,1428,743,8
1657302692535,53,1756,294
1657302692575,-2048,2047,976
1657302692615,-2048,1724,468
1657302692655,-1622,531,-82
1657302692695,-1446,269,-51
1657302692735,-1331,-161,-23
1657302692775,-1016,-682,-90
1657302692815,-610,-868,-182
1657302692855,-847,-204,-335
1657302692895,-1649,117,-172
1657302692935,-2048,1185,330
1657302692975,-2048,1815,579
1657302693015,-1925,2011,470
1657302693055,-897,1494,285
1657302693095,7,776,333
1657302693135,574,309,308
1657302693175,838,199,238
1657302693215,1168,147,104
1657302693255,1015,522,-37
1657302693295,963,1195,-23
1657302693335,-1854,2047,841
1657302693375,-2048,2047,652
1657302693415,-2048,1473,538
1657302693455,-1627,646,331
1657302693495,-1323,118,250
1657302693535,-1399,-171,-49
1657302693575,-1111,-253,-339
1657302693615,-671,-378,-600
1657302693655,-993,-371,-210
1657302693695,-2048,100,513
1657302693735,-2048,1887,664
1657302693775,-2048,2047,665
1657302693815,-1378,2047,392
1657302693855,-442,1383,66
1657302693895,148,735,303
1657302693935,620,304,359
1657302693975,889,111,286
1657302694015,1076,171,215
1657302694055,1286,637,131
1657302694095,1146,1819,333
1657302694135,-2048,2047,784
1657302694175,-2048,2047,-570
1657302694215,-1864,1460,-137
1657302694255,-1756,456,481
1657302694295,-1300,-67,130
1657302694335,-1026,-449,-133
1657302694375,-907,-379,-301
1657302694415,-803,-309,-403
1657302694455,-1577,191,-55
1657302694495,-2048,2022,-67
1657302694535,-2048,2047,421
1657302694575,-1220,2047,-279
1657302694615,-590,1907,-150
1657302694655,-51,1026,291
1657302694695,255,400,523
1657302694735,617,130,403
1657302694775,1007,81,307
1657302694815,1053,412,184
1657302694855,1227,1090,25
1657302694895,-557,2047,324
1657302694935,-2048,2047,99
1657302694975,-2048,1591,6
1657302695015,-1312,642,-142
1657302695055,-1146,199,-139
1657302695095,-1136,-78,-231
1657302695135,-1006,-365,-282
1657302695175,-873,-375,-206
1657302695215,-888,-123,-179
1657302695255,-1989,432,-15
1657302695295,-2048,2025,-17
1657302695335,-2048,2047,-25
1657302695375,-1552,2047,258
1657302695415,-633,1463,150
1657302695455,64,947,101
1657302695495,412,447,99
1657302695535,812,233,196
1657302695575,1059,62,244
1657302695615,1011,237,176
1657302695655,800,992,-71
1657302695695,-2048,2047,124
1657302695735,-2048,2047,-103
1657302695775,-1631,580,81
1657302695815,-1101,276,-233
1657302695855,-879,55,-318
1657302695895,-811,-189,-340
1657302695935,-1174,-108,-244
1657302695975,-1008,-274,-223
1657302696015,-1407,-227,-77
1657302696055,-2048,1202,139
1657302696095,-2048,1612,15
1657302696135,-1542,1517,195
1657302696175,-558,1041,40
1657302696215,33,662,-76
1657302696255,349,278,186
1657302696295,548,248,212
1657302696335,509,504,46
1657302696375,325,446,-41
1657302696415,-1926,1981,-397
1657302696455,-2048,1386,-334
1657302696495,-1592,461,-87
1657302696535,-1347,458,-297
1657302696575,-992,182,-416
1657302696615,-794,8,-265
1657302696655,-886,-238,-39
1657302696695,-981,-325,-10
1657302696735,-894,-182,-178
1657302696775,-1395,-90,-226
1657302696815,-2048,284,-4
1657302696855,-2048,473,-57
1657302696895,-1890,529,-100
1657302696935,-1259,596,-267
1657302696975,-481,696,-399
1657302697015,130,450,-225
1657302697055,217,507,-100
1657302697095,159,614,-61
1657302697135,-122,595,-4
1657302697175,-352,629,-215
1657302697215,-1258,909,-442
1657302697255,-1724,622,-416
1657302697295,-1991,440,-313
1657302697335,-1681,148,-370
1657302697375,-1118,-159,-411
1657302697415,-956,-217,-349
1657302697455,-950,-531,-19
1657302697495,-767,-528,75
1657302697535,-644,-234,-214
1657302697575,-1574,-385,-270
1657302697615,-2048,636,100
1657302697655,-2048,805,176
1657302697695,-1716,817,-2
1657302697735,-633,874,-122
1657302697775,118,593,36
1657302697815,400,256,191
1657302697855,421,257,290
1657302697895,610,338,205
1657302697935,1053,314,-128
1657302697975,-605,1763,-492
1657302698015,-2048,2047,-486
1657302698055,-2048,826,-83
1657302698095,-1371,197,-473
1657302698135,-1116,4,-514
1657302698175,-956,-213,-227
1657302698215,-762,-633,101
1657302698255,-647,-655,142
1657302698295,-798,-220,-82
1657302698335,-1931,53,-113
1657302698375,-2048,776,344
1657302698415,-2048,1234,341
1657302698455,-1791,1327,-32
1657302698495,-704,953,1
1657302698535,-4,519,152
1657302698575,335,197,248
1657302698615,418,101,308
1657302698655,493,257,328
1657302698695,750,216,91
1657302698735,1069,715,-247
1657302698775,-1514,2047,-97
1657302698815,-2048,2047,460
1657302698855,-2048,882,303
1657302698895,-1394,256,-243
1657302698935,-1153,90,-171
1657302698975,-912,-279,-81
1657302699015,-756,-489,-34
1657302699055,-557,-395,-115
1657302699095,-959,-142,-112
1657302699135,-2048,308,149
1657302699175,-2048,1123,279
1657302699215,-2048,1279,88
1657302699255,-1233,1248,-223
1657302699295,-315,725,-27
1657302699335,189,366,158
1657302699375,372,213,199
1657302699415,443,157,169
1657302699455,429,260,36
1657302699495,270,381,-192
1657302699535,-2048,1696,-600
1657302699575,-2048,1171,-199
1657302699615,-1617,183,-151
1657302699655,-1217,332,-494
1657302699695,-931,15,-403
1657302699735,-741,-204,-75
1657302699775,-744,-265,73
1657302699815,-573,-347,70
1657302699855,-602,-334,-71
1657302699895,-1363,-268,-187
1657302699935,-2048,545,257
1657302699975,-2048,806,171
1657302700015,-1832,999,-102
1657302700055,-1020,799,-214
1657302700095,-192,366,5
1657302700135,326,68,166
1657302700175,411,23,222
1657302700215,514,23,241
1657302700255,602,219,139
1657302700295,133,748,-380
1657302700335,-2048,2047,-133
1657302700375,-2048,1286,686
1657302700415,-1554,176,59
1657302700455,-1002,40,-294
1657302700495,-764,-211,-126
1657302700535,-617,-380,89
1657302700575,-643,-381,56
1657302700615,-567,-264,-89
1657302700655,-596,-267,-125
1657302700695,-1482,-118,107
1657302700735,-2048,465,1073
1657302700775,-2048,975,1021
1657302700815,-1592,1032,362
1657302700855,-947,620,310
1657302700895,-247,322,258
1657302700935,197,172,99
1657302700975,376,118,72
1657302701015,500,203,80
1657302701055,657,175,-33
1657302701095,-80,834,-43
1657302701135,-2048,2046,1460
1657302701175,-2048,500,1508
1657302701215,-1385,126,173
1657302701255,-940,32,-205
1657302701295,-740,-155,-91
1657302701335,-574,-415,58
1657302701375,-726,-345,88
1657302701415,-762,-167,42
1657302701455,-908,-301,-4
1657302701495,-2048,-440,893
1657302701535,-2048,-276,1910
1657302701575,-1360,-311,2046
1657302701615,-315,-138,1875
1657302701655,-297,69,578
1657302701695,63,130,27
1657302701735,670,-495,100
1657302701775,970,-426,779
1657302701815,-519,693,207
1657302701855,385,1235,-682
1657302701895,588,1753,-1630
1657302701935,403,1004,-836
1657302701975,731,776,-540
1657302702015,620,534,-707
1657302702055,538,499,-571
1657302702095,229,622,-663
1657302702135,35,363,-491
1657302702175,-116,304,-712
1657302702215,-256,354,-1105
1657302702255,-454,250,-1460
1657302702295,-1009,272,-1402
1657302702335,-1167,595,-1069
1657302702375,-615,660,-794
1657302702415,72,633,-750
1657302702455,181,328,-397
1657302702495,373,76,148
1657302702535,524,204,415
1657302702575,513,433,281
1657302702615,-102,1470,-34
1657302702655,-2048,2047,541
1657302702695,-2048,1979,1140
1657302702735,-1646,739,405
1657302702775,-1234,161,48
1657302702815,-1155,-57,8
1657302702855,-756,-254,-100
1657302702895,-522,-459,-291
1657302702935,-847,-524,223
1657302702975,-876,-367,214
1657302703015,-1832,303,125
1657302703055,-2048,1378,222
1657302703095,-2048,1536,287
1657302703135,-1384,1390,216
1657302703175,-598,902,220
1657302703215,-77,494,145
1657302703255,145,144,128
1657302703295,350,159,290
1657302703335,582,190,152
1657302703375,720,472,-33
1657302703415,585,1053,-236
1657302703455,-2048,2047,364
1657302703495,-2048,1607,150
1657302703535,-1529,540,-113
1657302703575,-1146,231,-303
1657302703615,-1047,-67,-238
1657302703655,-869,-285,-125
1657302703695,-673,-515,56
1657302703735,-607,-383,-60
1657302703775,-1231,-212,-67
1657302703815,-2048,875,439
1657302703855,-2048,1322,261
1657302703895,-1767,1354,68
1657302703935,-1126,1172,-123
1657302703975,-254,735,-87
1657302704015,210,308,-48
1657302704055,320,149,25
1657302704095,450,193,61
1657302704135,480,328,43
1657302704175,866,351,-83
1657302704215,201,1093,-13
1657302704255,-2048,2047,457
1657302704295,-2048,1574,486
1657302704335,-1355,283,70
1657302704375,-1045,114,-120
1657302704415,-979,-151,6
1657302704455,-825,-418,58
1657302704495,-868,-255,-140
1657302704535,-795,-238,-207
1657302704575,-1258,-389,19
1657302704615,-2048,864,412
1657302704655,-2048,1567,380
1657302704695,-1789,1735,91
1657302704735,-903,1381,-294
1657302704775,-278,851,-303
1657302704815,277,520,-298
1657302704855,584,211,18
1657302704895,815,157,262
1657302704935,1126,273,99
1657302704975,1214,604,-219
1657302705015,-1783,2047,-145
1657302705055,-2048,2047,1268
1657302705095,-2048,-333,915
1657302705135,-1093,-163,-97
1657302705175,-816,-420,-8
1657302705215,-588,-512,-120
1657302705255,-722,-290,-147
1657302705295,-759,-236,-157
1657302705335,-1636,-45,100
1657302705375,-2048,933,695
1657302705415,-2048,1488,268
1657302705455,-1597,1390,-205
1657302705495,-854,1136,-443
1657302705535,-166,656,-41
1657302705575,418,183,154
1657302705615,723,143,221
1657302705655,935,184,191
1657302705695,962,57,195
1657302705735,542,643,109
1657302705775,-2048,2047,748
1657302705815,-2048,2047,400
1657302705855,-1654,407,237
1657302705895,-1562,-49,175
1657302705935,-1418,-177,5
1657302705975,-1053,-319,-162
1657302706015,-668,-463,-265
1657302706055,-520,-256,-181
1657302706095,-1324,-14,129
1657302706135,-2048,625,546
1657302706175,-2048,1645,358
1657302706215,-1854,1501,130
1657302706255,-984,1595,57
1657302706295,-50,712,-100
1657302706335,374,226,129
1657302706375,494,48,255
1657302706415,536,136,203
1657302706455,557,384,125
1657302706495,654,424,-17
1657302706535,-2048,2047,-208
1657302706575,-2048,1589,119
1657302706615,-1922,640,-81
1657302706655,-1235,448,-369
1657302706695,-1086,140,-370
1657302706735,-1031,7,-243
1657302706775,-827,-199,-146
1657302706815,-658,-350,-49
1657302706855,-614,-170,-246
1657302706895,-1172,-215,-253
1657302706935,-2048,670,254
1657302706975,-2048,1012,77
1657302707015,-1877,1096,86
1657302707055,-1033,970,-21
1657302707095,-258,653,-99
1657302707135,160,372,-75
1657302707175,326,272,6
1657302707215,372,305,181
1657302707255,415,365,162
1657302707295,778,455,18
1657302707335,-842,1784,-76
1657302707375,-2048,2047,301
1657302707415,-2048,1090,370
1657302707455,-1412,431,-121
1657302707495,-1197,205,-246
1657302707535,-1064,29,-227
1657302707575,-896,-190,-97
1657302707615,-734,-354,-19
1657302707655,-907,-74,-80
1657302707695,-1112,-220,23
1657302707735,-2048,302,434
1657302707775,-2048,1234,787
1657302707815,-2048,1380,467
1657302707855,-1097,1228,60
1657302707895,-261,756,65
1657302707935,264,363,127
1657302707975,491,209,124
1657302708015,528,205,109
1657302708055,471,278,76
1657302708095,164,613,-114
1657302708135,-2048,2047,-6
1657302708175,-2048,1415,259
1657302708215,-1691,596,78
1657302708255,-1151,268,-264
1657302708295,-1041,100,-310
1657302708335,-991,-25,-143
1657302708375,-875,-302,25
1657302708415,-634,-384,-60
1657302708455,-962,-229,-174
1657302708495,-2048,111,-91
1657302708535,-2048,908,141
1657302708575,-2048,1139,249
1657302708615,-1469,1008,78
1657302708655,-616,925,-134
1657302708695,5,510,-62
1657302708735,376,226,203
1657302708775,623,135,267
1657302708815,735,264,177
1657302708855,971,580,24
1657302708895,-1754,2047,-122
1657302708935,-2048,2047,-335
1657302708975,-2034,778,-189
1657302709015,-1286,221,-290
1657302709055,-1143,38,-257
1657302709095,-973,-203,-153
1657302709135,-702,-406,-106
1657302709175,-638,-303,-119
1657302709215,-1092,-169,-153
1657302709255,-2048,185,8
1657302709295,-2048,924,-36
1657302709335,-2048,1035,58
1657302709375,-1363,948,-103
1657302709415,-494,778,-87
1657302709455,52,441,52
1657302709495,337,268,85
1657302709535,432,323,171
1657302709575,523,510,164
1657302709615,745,647,-38
1657302709655,-1514,1984,-17
1657302709695,-2048,2047,-186
1657302709735,-2048,780,-194
1657302709775,-1522,-25,80
1657302709815,-1115,-298,130
1657302709855,-848,-451,181
1657302709895,-545,-744,133
1657302709935,-562,-483,14
1657302709975,-964,-227,-224
1657302710015,-2048,-115,-76
1657302710055,-2048,645,197
1657302710095,-2048,1113,120
1657302710135,-1689,1094,-75
1657302710175,-814,833,-45
1657302710215,-136,494,81
1657302710255,263,345,141
1657302710295,463,323,204
1657302710335,629,300,159
1657302710375,860,423,-11
1657302710415,-832,1371,-123
1657302710455,-2048,2047,370
1657302710495,-2048,966,476
1657302710535,-1391,396,162
1657302710575,-1146,124,107
1657302710615,-995,-138,161
1657302710655,-827,-383,189
1657302710695,-808,-507,58
1657302710735,-1151,-243,146
1657302710775,-1212,-375,125
1657302710815,-2003,-185,475
1657302710855,-2048,674,1005
1657302710895,-2048,964,677
1657302710935,-1358,1123,223
1657302710975,-414,767,133
1657302711015,36,559,160
1657302711055,370,374,238
1657302711095,632,301,209
1657302711135,860,220,-41
1657302711175,838,384,-351
1657302711215,-2048,2047,349
1657302711255,-2048,1060,683
1657302711295,-1738,248,23
1657302711335,-1248,120,-211
1657302711375,-1333,112,-116
1657302711415,-920,-163,-95
1657302711455,-558,-464,-32
1657302711495,-330,-581,-46
1657302711535,-599,-552,-181
1657302711575,-2048,11,-12
1657302711615,-2048,579,-72
1657302711655,-2048,599,29
1657302711695,-1515,560,145
1657302711735,-767,662,133
1657302711775,-254,748,61
1657302711815,172,616,48
1657302711855,500,464,-57
1657302711895,481,448,-9
1657302711935,476,544,72
1657302711975,-1031,1589,101
1657302712015,-2048,1655,187
1657302712055,-2048,999,-152
1657302712095,-1544,523,-362
1657302712135,-1329,217,-415
1657302712175,-1118,39,-391
1657302712215,-977,-165,-295
1657302712255,-716,-394,-94
1657302712295,-481,-449,-45
1657302712335,-1058,-327,-121
1657302712375,-2048,559,142
1657302712415,-2048,755,389
1657302712455,-2048,1052,429
1657302712495,-1128,1106,31
1657302712535,-236,715,-105
1657302712575,222,366,45
1657302712615,420,205,143
1657302712655,477,278,116
1657302712695,566,320,-4
1657302712735,465,561,-192
1657302712775,-2048,2047,-118
1657302712815,-2048,1488,194
1657302712855,-1757,527,88
1657302712895,-1279,350,-191
1657302712935,-1153,137,-166
1657302712975,-1000,-43,-32
1657302713015,-842,-315,71
1657302713055,-598,-500,40
1657302713095,-633,-469,-144
1657302713135,-2048,202,-14
1657302713175,-2048,779,318
1657302713215,-2048,1096,298
1657302713255,-1821,926,303
1657302713295,-1234,929,71
1657302713335,-473,888,33
1657302713375,135,659,131
1657302713415,559,506,184
1657302713455,777,407,130
1657302713495,916,447,39
1657302713535,972,659,-57
1657302713575,-2048,2047,364
1657302713615,-2048,2047,121
1657302713655,-1916,755,110
1657302713695,-1208,196,87
1657302713735,-1101,-24,74
1657302713775,-925,-141,-6
1657302713815,-747,-339,-45
1657302713855,-672,-404,-31
1657302713895,-963,-181,-82
1657302713935,-2048,226,96
1657302713975,-2048,1042,565
1657302714015,-2048,1439,469
1657302714055,-1652,1295,229
1657302714095,-1177,1203,162
1657302714135,-315,815,184
1657302714175,462,428,252
1657302714215,812,209,231
1657302714255,941,239,242
1657302714295,955,360,64
1657302714335,902,846,68
1657302714375,-2048,2047,683
1657302714415,-2048,2047,153
1657302714455,-2048,1166,-154
1657302714495,-1641,608,-37
1657302714535,-1212,92,17
1657302714575,-1509,58,-171
1657302714615,-1179,205,-396
1657302714655,-569,-90,-236
1657302714695,-337,-392,84
1657302714735,-863,-498,240
1657302714775,-2048,790,278
1657302714815,-2048,1452,320
1657302714855,-1966,1740,42
1657302714895,-920,1484,-237
1657302714935,-61,812,-98
1657302714975,409,330,31
1657302715015,414,229,147
1657302715055,413,172,196
1657302715095,526,272,179
1657302715135,782,1017,-80
1657302715175,52,1524,314
1657302715215,-2048,2047,839
1657302715255,-2048,2019,218
1657302715295,-1789,1089,-83
1657302715335,-1445,520,18
1657302715375,-1386,416,143
1657302715415,-986,-62,-319
1657302715455,-803,-180,-299
1657302715495,-900,-147,-232
1657302715535,-1220,-53,-229
1657302715575,-2048,431,-22
1657302715615,-2048,1020,214
1657302715655,-2048,1681,266
1657302715695,-1567,1516,242
1657302715735,-727,1247,379
1657302715775,-6,860,428
1657302715815,491,595,321
1657302715855,863,362,181
1657302715895,1123,280,134
1657302715935,1032,533,22
1657302715975,-153,1508,34
1657302716015,-2048,2047,451
1657302716055,-2048,1734,171
1657302716095,-1694,724,-180
1657302716135,-1356,303,-215
1657302716175,-1150,67,-189
1657302716215,-891,-144,-152
1657302716255,-668,-414,-53
1657302716295,-592,-403,-110
1657302716335,-1453,-35,6
1657302716375,-2048,934,459
1657302716415,-2048,1650,577
1657302716455,-1801,1698,398
1657302716495,-901,1318,153
1657302716535,-131,835,-77
1657302716575,216,558,201
1657302716615,465,320,216
1657302716655,662,321,113
1657302716695,856,473,-5
1657302716735,1146,949,-145
1657302716775,-2032,2047,1015
1657302716815,-2048,2047,998
1657302716855,-1907,672,397
1657302716895,-1684,299,246
1657302716935,-1365,49,-176
1657302716975,-935,-214,-151
1657302717015,-624,-638,-83
1657302717055,-374,-796,-114
1657302717095,-303,-361,-362
1657302717135,-1782,164,-376
1657302717175,-2048,892,472
1657302717215,-2048,1220,632
1657302717255,-1716,1412,487
1657302717295,-584,892,393
1657302717335,148,297,385
1657302717375,477,26,339
1657302717415,495,172,307
1657302717455,712,236,195
1657302717495,952,540,65
1657302717535,-425,1603,411
1657302717575,-2048,2047,1174
1657302717615,-2048,1208,424
1657302717655,-1508,409,30
1657302717695,-1189,159,-164
1657302717735,-1002,17,-154
1657302717775,-667,-149,-143
1657302717815,-463,-335,-129
1657302717855,-525,-453,-155
1657302717895,-1303,-334,-82
1657302717935,-2048,620,400
1657302717975,-2048,1321,549
1657302718015,-1848,1311,545
1657302718055,-983,1277,231
1657302718095,-306,746,295
1657302718135,217,340,298
1657302718175,466,198,239
1657302718215,624,155,209
1657302718255,790,219,152
1657302718295,961,632,19
1657302718335,-2048,2047,1090
1657302718375,-2048,1591,1012
1657302718415,-1767,560,71
1657302718455,-910,227,-196
1657302718495,-691,-106,-290
1657302718535,-907,-218,-118
1657302718575,-1149,-360,1
1657302718615,-942,-288,-114
1657302718655,-872,-171,-249
1657302718695,-2048,282,149
1657302718735,-2048,556,321
1657302718775,-2048,1131,371
1657302718815,-1627,1101,270
1657302718855,-797,688,258
1657302718895,-126,515,147
1657302718935,219,305,116
1657302718975,474,214,209
1657302719015,626,239,227
1657302719055,871,242,118
1657302719095,20,1202,235
1657302719135,-2048,2047,646
1657302719175,-2048,1366,152
1657302719215,-1325,430,-226
1657302719255,-1089,148,-181
1657302719295,-907,-104,-157
1657302719335,-690,-297,-217
1657302719375,-668,-257,-136
1657302719415,-885,-141,-162
1657302719455,-1221,-92,-207
1657302719495,-2048,410,47
1657302719535,-2048,1022,313
1657302719575,-1842,1103,334
1657302719615,-1102,1036,211
1657302719655,-488,652,101
1657302719695,-55,321,161
1657302719735,115,227,203
1657302719775,319,122,193
1657302719815,458,214,229
1657302719855,633,540,120
1657302719895,-1273,1715,270
1657302719935,-2048,2047,347
1657302719975,-1785,757,99
1657302720015,-1169,437,-255
1657302720055,-1034,334,-340
1657302720095,-874,144,-232
1657302720135,-678,-156,-114
1657302720175,-518,-272,-156
1657302720215,-744,-66,-236
1657302720255,-1341,-51,-119
1657302720295,-2048,487,396
1657302720335,-2048,1250,216
1657302720375,-1762,1289,-41
1657302720415,-1014,914,78
1657302720455,-261,501,208
1657302720495,216,196,235
1657302720535,446,127,212
1657302720575,574,202,185
1657302720615,648,406,149
1657302720655,844,832,112
1657302720695,-2048,2047,737
1657302720735,-2048,2047,422
1657302720775,-1982,898,201
1657302720815,-1195,318,-96
1657302720855,-961,84,-158
1657302720895,-873,-165,-143
1657302720935,-857,-322,-70
1657302720975,-782,-221,-199
1657302721015,-1064,-136,-231
1657302721055,-2048,308,155
1657302721095,-2048,1066,566
1657302721135,-2048,1391,656
1657302721175,-1387,1365,483
1657302721215,-612,975,366
1657302721255,77,489,335
1657302721295,476,193,262
1657302721335,634,129,202
1657302721375,762,197,215
1657302721415,839,454,210
1657302721455,70,1270,459
1657302721495,-2048,2047,1463
1657302721535,-2048,1682,1003
1657302721575,-2012,820,355
1657302721615,-1311,333,33
1657302721655,-1114,61,38
1657302721695,-899,-165,-87
1657302721735,-655,-341,-154
1657302721775,-472,-448,-147
1657302721815,-911,-121,-118
1657302721855,-2048,222,191
1657302721895,-2048,924,556
1657302721935,-2048,1470,709
1657302721975,-1427,1400,479
1657302722015,-717,1010,379
1657302722055,-14,693,285
1657302722095,456,343,121
1657302722135,628,82,142
1657302722175,641,151,246
1657302722215,711,445,289
1657302722255,370,1144,330
1657302722295,-2048,2047,1020
1657302722335,-2048,1881,550
1657302722375,-1806,833,11
1657302722415,-1405,471,-131
1657302722455,-1192,184,-97
1657302722495,-959,-134,-118
1657302722535,-799,-181,-123
1657302722575,-548,-201,-271
1657302722615,-894,-157,-285
1657302722655,-2048,657,274
1657302722695,-2048,1441,426
1657302722735,-1978,1414,610
1657302722775,-1288,1281,548
1657302722815,-451,966,355
1657302722855,141,568,285
1657302722895,424,275,220
1657302722935,544,188,222
1657302722975,600,197,242
1657302723015,883,388,237
1657302723055,29,1421,708
1657302723095,-2048,2047,1351
1657302723135,-2048,1852,768
1657302723175,-1787,1112,105
1657302723215,-1416,571,-33
1657302723255,-1297,241,-16
1657302723295,-1035,-28,-116
1657302723335,-820,-195,-189
1657302723375,-694,-190,-209
1657302723415,-1036,-121,-178
1657302723455,-2048,486,170
1657302723495,-2048,1589,798
1657302723535,-1896,1588,937
1657302723575,-1220,1371,771
1657302723615,-393,857,580
1657302723655,167,553,351
1657302723695,488,343,193
1657302723735,770,265,95
1657302723775,925,282,112
1657302723815,1019,576,89
1657302723855,-111,1627,751
1657302723895,-2048,2047,1660
1657302723935,-2048,1623,932
1657302723975,-1602,921,428
1657302724015,-1276,322,335
1657302724055,-1225,163,124
1657302724095,-1047,-79,-68
1657302724135,-929,-133,-228
1657302724175,-789,132,-362
1657302724215,-991,99,-287
1657302724255,-2048,680,141
1657302724295,-2048,1357,710
1657302724335,-2048,1915,919
1657302724375,-1136,1580,769
1657302724415,-319,1005,641
1657302724455,164,666,446
1657302724495,382,378,293
1657302724535,560,143,141
1657302724575,657,135,95
1657302724615,868,371,25
1657302724655,875,1199,10
1657302724695,-2048,2047,1122
1657302724735,-2048,2047,865
1657302724775,-1784,746,606
1657302724815,-1337,408,245
1657302724855,-912,49,-15
1657302724895,-757,-108,-116
1657302724935,-848,-210,-109
1657302724975,-617,-412,-181
1657302725015,-590,-212,-367
1657302725055,-1090,-82,-303
1657302725095,-2048,705,160
1657302725135,-2048,1362,239
1657302725175,-2048,1352,584
1657302725215,-1565,1450,682
1657302725255,-639,1097,452
1657302725295,-95,763,439
1657302725335,306,535,309
1657302725375,551,299,293
1657302725415,673,277,168
1657302725455,1066,177,76
1657302725495,1178,687,238
1657302725535,-2048,2047,1121
1657302725575,-2048,2042,433
1657302725615,-1887,748,-87
1657302725655,-1452,415,-26
1657302725695,-1497,-107,63
1657302725735,-1251,-317,31
1657302725775,-765,-518,-32
1657302725815,-312,-524,-200
1657302725855,-219,-387,-328
1657302725895,-1339,-450,-22
1657302725935,-2048,365,1229
1657302725975,-2048,1534,575
1657302726015,-1853,1118,370
1657302726055,-1445,874,596
1657302726095,-579,694,423
1657302726135,87,428,290
1657302726175,473,175,218
1657302726215,550,116,187
1657302726255,520,407,106
1657302726295,758,531,-117
1657302726335,194,914,165
1657302726375,-2048,2047,1502
1657302726415,-2048,1159,950
1657302726455,-1729,368,171
1657302726495,-1500,222,53
1657302726535,-1130,74,-109
1657302726575,-709,-58,-140
1657302726615,-538,-362,-26
1657302726655,-450,-424,-139
1657302726695,-767,-116,-222
1657302726735,-1476,-143,-165
1657302726775,-2048,357,392
1657302726815,-2048,836,597
1657302726855,-1925,840,586
1657302726895,-1284,992,402
1657302726935,-469,776,149
1657302726975,98,383,98
1657302727015,338,204,134
1657302727055,456,151,163
1657302727095,495,349,288
1657302727135,819,506,110
1657302727175,-384,1542,540
1657302727215,-2048,2047,946
1657302727255,-2048,1538,594
1657302727295,-1734,821,117
1657302727335,-1263,398,-104
1657302727375,-1079,256,-137
1657302727415,-909,-63,-186
1657302727455,-883,-289,-135
1657302727495,-765,-255,-192
1657302727535,-1093,-9,-186
1657302727575,-2048,462,273
1657302727615,-2048,1088,700
1657302727655,-2048,1571,638
1657302727695,-1165,1486,306
1657302727735,-462,1002,173
1657302727775,-4,555,152
1657302727815,333,266,195
1657302727855,456,221,182
1657302727895,650,189,132
1657302727935,677,337,176
1657302727975,767,884,197
1657302728015,-790,2047,775
1657302728055,-2048,2047,899
1657302728095,-2048,1892,370
1657302728135,-1824,1313,-15
1657302728175,-1195,371,-78
1657302728215,-1231,107,-82
1657302728255,-793,-220,-176
1657302728295,-556,-155,-134
1657302728335,-601,19,-326
1657302728375,-982,-19,-306
1657302728415,-2048,789,221
1657302728455,-2048,1823,452
1657302728495,-1824,1643,509
1657302728535,-1403,1495,627
1657302728575,-701,1245,626
1657302728615,37,844,531
1657302728655,1110,483,408
1657302728695,1937,-52,169
1657302728735,1558,192,318
1657302728775,791,1406,583
1657302728815,-532,2047,1043
1657302728855,-2048,2047,1747
1657302728895,-2048,2047,1719
1657302728935,-1624,954,918
1657302728975,-1329,662,236
1657302729015,-1151,298,-43
1657302729055,-906,-14,-123
1657302729095,-826,-264,-316
1657302729135,-681,-203,-390
1657302729175,-965,0,-268
1657302729215,-2048,576,268
1657302729255,-2048,2047,1169
1657302729295,-2048,2047,1422
1657302729335,-1302,2047,1102
1657302729375,-391,1413,808
1657302729415,359,890,736
1657302729455,677,328,488
1657302729495,924,137,370
1657302729535,1503,-15,233
1657302729575,1436,130,196
1657302729615,1264,1279,578
1657302729655,-1483,2047,1463
1657302729695,-2048,2047,1407
1657302729735,-2048,2047,1138
1657302729775,-1774,777,504
1657302729815,-1286,264,-13
1657302729855,-967,68,-232
1657302729895,-836,-282,-238
1657302729935,-596,-375,-457
1657302729975,-740,-203,-357
1657302730015,-1742,-48,135
1657302730055,-2048,1058,674
1657302730095,-2048,2047,786
1657302730135,-2031,2047,808
1657302730175,-720,1856,527
1657302730215,210,904,474
1657302730255,715,158,219
1657302730295,744,106,231
1657302730335,1148,131,160
1657302730375,1439,190,7
1657302730415,1392,957,410
1657302730455,-1143,2047,1226
1657302730495,-2048,2047,1603
1657302730535,-2048,1448,576
1657302730575,-1470,382,-75
1657302730615,-1108,87,-130
1657302730655,-813,-106,-116
1657302730695,-668,-172,-38
1657302730735,-592,-320,15
1657302730775,-378,-376,-106
1657302730815,-907,-119,-192
1657302730855,-2048,749,501
1657302730895,-2048,1787,823
1657302730935,-2048,1846,870
1657302730975,-1124,1686,466
1657302731015,-432,1154,180
1657302731055,313,581,125
1657302731095,601,191,136
1657302731135,797,5,136
1657302731175,995,120,96
1657302731215,896,432,122
1657302731255,783,1017,110
1657302731295,-2048,2047,1059
1657302731335,-2048,2047,766
1657302731375,-2048,1317,313
1657302731415,-1503,537,39
1657302731455,-1209,150,37
1657302731495,-844,-109,-70
1657302731535,-674,-357,-94
1657302731575,-609,-393,-219
1657302731615,-985,-79,-267
1657302731655,-2048,250,76
1657302731695,-2048,1440,644
1657302731735,-2048,1668,489
1657302731775,-1505,1645,448
1657302731815,-827,1280,238
1657302731855,-104,774,229
1657302731895,316,344,230
1657302731935,584,227,181
1657302731975,674,285,109
1657302732015,618,570,204
1657302732055,753,1000,38
1657302732095,-1593,2047,489
1657302732135,-2048,2047,688
1657302732175,-2048,1624,672
1657302732215,-1851,907,341
1657302732255,-1355,255,197
1657302732295,-1167,-41,134
1657302732335,-998,-241,25
1657302732375,-899,-219,-21
1657302732415,-863,5,-119
1657302732455,-1030,73,-139
1657302732495,-2048,551,304
1657302732535,-2048,1530,630
1657302732575,-2048,1789,731
1657302732615,-1248,2047,394
1657302732655,-448,1400,195
1657302732695,165,645,272
1657302732735,463,175,227
1657302732775,652,-27,154
1657302732815,849,94,107
1657302732855,873,464,189
1657302732895,842,1597,-44
1657302732935,-1177,2047,496
1657302732975,-2048,2047,729
1657302733015,-2048,1603,432
1657302733055,-1657,818,160
1657302733095,-1330,202,-103
1657302733135,-1186,383,-346
1657302733175,-937,280,-541
1657302733215,-794,84,-313
1657302733255,-855,219,-293
1657302733295,-1048,146,-72
1657302733335,-2048,996,641
1657302733375,-2048,2047,1255
1657302733415,-1289,1890,888
1657302733455,-993,1621,770
1657302733495,-282,1246,370
1657302733535,451,738,115
1657302733575,669,309,-29
1657302733615,769,138,34
1657302733655,964,28,70
1657302733695,1161,267,2
1657302733735,1004,1450,220
1657302733775,-2048,2047,1128
1657302733815,-2048,2047,734
1657302733855,-2048,935,290
1657302733895,-1449,231,-162
1657302733935,-1151,-1,-305
1657302733975,-902,-120,-267
1657302734015,-744,-274,-118
1657302734055,-602,-154,-133
1657302734095,-782,-395,-230
1657302734135,-2048,458,296
1657302734175,-2048,1395,584
1657302734215,-2048,1879,531
1657302734255,-1197,1778,215
1657302734295,-358,1081,93
1657302734335,182,505,154
1657302734375,448,214,181
1657302734415,568,106,160
1657302734455,790,217,144
1657302734495,825,496,180
1657302734535,565,1218,46
1657302734575,-2048,2047,872
1657302734615,-2048,2047,640
1657302734655,-2048,905,218
1657302734695,-1587,284,90
1657302734735,-1280,53,-35
1657302734775,-1189,178,-151
1657302734815,-696,-460,-172
1657302734855,-638,-584,-37
1657302734895,-919,-134,-72
1657302734935,-1475,-113,88
1657302734975,-2048,658,316
1657302735015,-2048,913,186
1657302735055,-1618,959,-1
1657302735095,-858,826,48
1657302735135,-308,606,170
1657302735175,2,467,146
1657302735215,210,376,71
1657302735255,315,433,44
1657302735295,138,631,59
1657302735335,-174,851,164
1657302735375,-204,1067,176
1657302735415,-1599,1858,376
1657302735455,-2048,1855,96
1657302735495,-1676,1160,16
1657302735535,-1420,621,219
1657302735575,-1368,308,160
1657302735615,-1054,-3,-76
1657302735655,-891,-363,-55
1657302735695,-964,-569,28
1657302735735,-982,-281,-158
1657302735775,-1563,234,-204
1657302735815,-2048,977,223
1657302735855,-2048,1630,568
1657302735895,-1895,1581,491
1657302735935,-1153,1420,290
1657302735975,-563,911,351
1657302736015,47,486,327
1657302736055,406,228,232
1657302736095,499,83,262
1657302736135,503,99,271
1657302736175,791,334,45
1657302736215,523,820,-386
1657302736255,-2048,2047,-48
1657302736295,-2048,1497,-596
1657302736335,-1313,464,-324
1657302736375,-1297,232,-294
1657302736415,-1048,126,-251
1657302736455,-711,-71,-234
1657302736495,-475,-280,-153
1657302736535,-448,-349,-115
1657302736575,-679,-237,-228
1657302736615,-1991,52,28
1657302736655,-2048,1048,210
1657302736695,-2048,1389,77
1657302736735,-1723,1451,53
1657302736775,-848,1024,21
1657302736815,-138,614,145
1657302736855,321,281,225
1657302736895,591,70,170
1657302736935,739,89,172
1657302736975,750,231,108
1657302737015,905,681,33
1657302737055,-2048,2047,116
1657302737095,-2048,2047,107
1657302737135,-1798,718,109
1657302737175,-1271,373,-208
1657302737215,-1119,113,-272
1657302737255,-1081,136,-151
1657302737295,-768,-234,-54
1657302737335,-471,-370,-123
1657302737375,-394,-392,-236
1657302737415,-1363,-337,53
1657302737455,-2048,1159,530
1657302737495,-2048,1578,365
1657302737535,-1797,1559,190
1657302737575,-957,1343,-93
1657302737615,-203,786,20
1657302737655,311,361,244
1657302737695,548,101,259
1657302737735,550,86,164
1657302737775,584,160,156
1657302737815,828,616,50
1657302737855,-1242,2047,32
1657302737895,-2048,2047,161
1657302737935,-2048,1041,177
1657302737975,-1040,403,-231
1657302738015,-827,201,-329
1657302738055,-802,54,-206
1657302738095,-792,-184,-73
1657302738135,-905,-324,20
1657302738175,-962,-200,-68
1657302738215,-1512,41,-73
1657302738255,-2048,854,246
1657302738295,-2048,1439,312
1657302738335,-2024,1636,207
1657302738375,-1181,1284,52
1657302738415,-406,841,82
1657302738455,172,481,163
1657302738495,465,160,194
1657302738535,625,58,185
1657302738575,577,321,163
1657302738615,709,508,87
1657302738655,292,1191,-3
1657302738695,-2048,2047,490
1657302738735,-2048,1695,468
1657302738775,-1829,802,48
1657302738815,-1256,395,-226
1657302738855,-1054,2,-208
1657302738895,-909,-168,-95
1657302738935,-707,-378,-32
1657302738975,-485,-411,-69
1657302739015,-783,-195,-109
1657302739055,-2019,215,1
1657302739095,-2048,1123,250
1657302739135,-2048,1743,98
1657302739175,-1591,1536,-29
1657302739215,-896,1166,-130
1657302739255,-306,614,16
1657302739295,171,326,139
1657302739335,392,51,140
1657302739375,499,124,75
1657302739415,427,353,58
1657302739455,502,485,25
1657302739495,-350,1149,-252
1657302739535,-2048,2047,-105
1657302739575,-2048,1330,69
1657302739615,-1575,503,-140
1657302739655,-1366,316,-277
1657302739695,-1129,72,-239
1657302739735,-834,-114,-172
1657302739775,-572,-167,-89
1657302739815,-352,-434,55
1657302739855,-286,-388,-74
1657302739895,-1314,33,-265
1657302739935,-2048,967,15
1657302739975,-2048,1170,95
1657302740015,-1988,1182,154
1657302740055,-1436,1058,167
1657302740095,-597,758,316
1657302740135,-28,388,366
1657302740175,387,82,212
1657302740215,494,-49,131
1657302740255,506,203,76
1657302740295,539,438,86
1657302740335,698,863,200
1657302740375,-1927,2047,1065
1657302740415,-2048,2047,1065
1657302740455,-2048,1110,449
1657302740495,-1783,687,177
1657302740535,-1550,240,18
1657302740575,-1086,-128,-109
1657302740615,-872,-165,-165
1657302740655,-556,-438,-230
1657302740695,-397,-370,-324
1657302740735,-685,-200,-336
1657302740775,-2048,314,95
1657302740815,-2048,1243,686
1657302740855,-2048,1631,719
1657302740895,-1482,1295,668
1657302740935,-1139,971,596
1657302740975,-751,619,472
1657302741015,-387,502,256
1657302741055,18,393,69
1657302741095,360,211,-76
1657302741135,497,262,-25
1657302741175,564,310,96
1657302741215,784,460,122
1657302741255,-402,1497,482
1657302741295,-2048,2047,974
1657302741335,-2048,1776,832
1657302741375,-2048,906,182
1657302741415,-1696,392,23
1657302741455,-1275,152,-56
1657302741495,-772,-199,-153
1657302741535,-699,-349,-147
1657302741575,-524,-415,-229
1657302741615,-588,-201,-303
1657302741655,-1472,-73,-224
1657302741695,-2048,783,299
1657302741735,-2048,1493,517
1657302741775,-1875,1312,597
1657302741815,-1132,1142,501
1657302741855,-525,896,403
1657302741895,70,459,392
1657302741935,388,228,254
1657302741975,421,151,217
1657302742015,474,298,217
1657302742055,718,538,39
1657302742095,320,1205,141
1657302742135,-2048,2047,769
1657302742175,-2048,2047,594
1657302742215,-1981,952,218
1657302742255,-1763,472,69
1657302742295,-1295,117,-12
1657302742335,-790,-169,-150
1657302742375,-446,-489,-173
1657302742415,-404,-488,-167
1657302742455,-995,-437,-233
1657302742495,-2048,127,238
1657302742535,-2048,1526,661
1657302742575,-2048,1759,305
1657302742615,-1387,1490,400
1657302742655,-690,1121,281
1657302742695,-49,532,237
1657302742735,81,274,246
1657302742775,128,99,199
1657302742815,197,88,128
1657302742855,236,284,61
1657302742895,389,579,-118
1657302742935,-1066,1851,22
1657302742975,-2048,2047,283
1657302743015,-1948,1281,383
1657302743055,-1364,566,97
1657302743095,-1243,277,-76
1657302743135,-1328,386,-21
1657302743175,-973,-130,-6
1657302743215,-683,-336,-24
1657302743255,-508,-298,-55
1657302743295,-681,-75,-182
1657302743335,-1469,-91,-261
1657302743375,-2048,780,216
1657302743415,-2048,1659,758
1657302743455,-1769,1453,749
1657302743495,-736,1117,413
1657302743535,-114,702,171
1657302743575,169,444,93
1657302743615,291,254,69
1657302743655,358,210,-35
1657302743695,490,187,81
1657302743735,667,441,3
1657302743775,-412,1382,-171
1657302743815,-2048,2047,-48
1657302743855,-2048,1611,232
1657302743895,-1843,261,808
1657302743935,-1571,178,550
1657302743975,-1012,-153,282
1657302744015,-686,-315,183
1657302744055,-421,-355,56
1657302744095,-288,-395,-73
1657302744135,-530,-235,-160
1657302744175,-1896,39,345
1657302744215,-2048,743,1179
1657302744255,-2048,1306,681
1657302744295,-1400,1101,215
1657302744335,-905,813,6
1657302744375,-767,635,4
1657302744415,-544,324,304
1657302744455,58,-35,168
1657302744495,557,-141,-115
1657302744535,956,18,-457
1657302744575,587,570,-94
1657302744615,451,309,-60
1657302744655,-2048,2047,761
1657302744695,-2048,1371,850
1657302744735,-1847,689,77
1657302744775,-1345,375,-179
1657302744815,-1186,4,-141
1657302744855,-1007,-111,-115
1657302744895,-820,-195,-117
1657302744935,-632,-340,-53
1657302744975,-522,-300,-152
1657302745015,-849,-311,-234
1657302745055,-2048,274,192
1657302745095,-2048,768,470
1657302745135,-2048,1193,396
1657302745175,-1443,1030,70
1657302745215,-719,819,-44
1657302745255,-97,425,37
1657302745295,318,90,46
1657302745335,434,102,93
1657302745375,480,212,71
1657302745415,429,446,99
1657302745455,379,582,-4
1657302745495,-2048,2047,238
1657302745535,-2048,1783,238
1657302745575,-2006,780,146
1657302745615,-1434,498,-192
1657302745655,-1345,185,-127
1657302745695,-1172,-80,-49
1657302745735,-878,-284,-97
1657302745775,-627,-362,-142
1657302745815,-637,-265,-205
1657302745855,-1448,-89,-77
1657302745895,-2048,496,232
1657302745935,-2048,1156,254
1657302745975,-2042,1265,200
1657302746015,-1272,1183,127
1657302746055,-487,776,116
1657302746095,73,373,221
1657302746135,385,158,206
1657302746175,463,197,176
1657302746215,499,331,177
1657302746255,699,487,40
1657302746295,-165,1443,148
1657302746335,-2048,2047,445
1657302746375,-2048,1660,369
1657302746415,-1784,994,0
1657302746455,-1692,618,-116
1657302746495,-1411,187,-75
1657302746535,-945,-174,-80
1657302746575,-617,-394,-168
1657302746615,-481,-503,-173
1657302746655,-743,-227,-242
1657302746695,-1434,-80,-157
1657302746735,-2048,705,350
1657302746775,-2048,1462,544
1657302746815,-1932,1439,380
1657302746855,-1378,1371,249
1657302746895,-584,1054,303
1657302746935,-101,608,362
1657302746975,278,348,266
1657302747015,437,116,145
1657302747055,557,270,96
1657302747095,694,589,1
1657302747135,887,740,191
1657302747175,-1524,2047,654
1657302747215,-2048,2047,504
1657302747255,-2048,1403,137
1657302747295,-1649,785,4
1657302747335,-1494,481,-50
1657302747375,-1129,180,-191
1657302747415,-852,-35,-222
1657302747455,-681,-178,-158
1657302747495,-517,-222,-189
1657302747535,-779,10,-242
1657302747575,-1753,268,41
1657302747615,-2048,1297,462
1657302747655,-2048,1949,351
1657302747695,-1483,1738,168
1657302747735,-1057,1045,178
1657302747775,-548,663,131
1657302747815,-11,433,105
1657302747855,308,126,164
1657302747895,505,64,169
1657302747935,531,348,158
1657302747975,613,436,239
1657302748015,589,674,263
1657302748055,-1792,2047,631
1657302748095,-2048,2047,638
1657302748135,-2048,1349,206
1657302748175,-1661,787,-76
1657302748215,-1450,519,-170
1657302748255,-1087,238,-216
1657302748295,-766,12,-249
1657302748335,-579,-71,-208
1657302748375,-722,5,-145
1657302748415,-990,200,-210
1657302748455,-1365,316,-126
1657302748495,-2048,519,559
1657302748535,-2048,1083,570
1657302748575,-1725,1224,348
1657302748615,-1292,1202,1
1657302748655,-736,837,-3
1657302748695,-159,471,57
1657302748735,213,119,49
1657302748775,391,37,59
1657302748815,465,171,30
1657302748855,436,599,89
1657302748895,819,721,182
1657302748935,-843,2047,859
1657302748975,-2048,2047,1035
1657302749015,-2008,1979,741
1657302749055,-1516,751,638
1657302749095,-1542,174,467
1657302749135,-1417,168,99
1657302749175,-1194,132,-218
1657302749215,-850,-64,-304
1657302749255,-567,2,-379
1657302749295,-589,-26,-299
1657302749335,-1431,-91,237
1657302749375,-2048,1188,611
1657302749415,-2048,1816,619
1657302749455,-1441,1621,470
1657302749495,-971,1400,349
1657302749535,-423,817,319
1657302749575,42,457,298
1657302749615,317,336,156
1657302749655,431,270,32
1657302749695,490,357,62
1657302749735,523,606,103
1657302749775,581,1144,253
1657302749815,-1859,2047,947
1657302749855,-2048,2047,774
1657302749895,-2033,1261,387
1657302749935,-1600,708,55
1657302749975,-1425,407,-161
1657302750015,-1169,122,-270
1657302750055,-901,-46,-305
1657302750095,-708,33,-251
1657302750135,-608,91,-226
1657302750175,-730,52,-96
1657302750215,-1641,67,327
1657302750255,-2048,758,517
1657302750295,-2048,1649,303
1657302750335,-1571,1416,221
1657302750375,-1032,1101,156
1657302750415,-521,664,221
1657302750455,-40,392,173
1657302750495,237,210,116
1657302750535,400,210,90
1657302750575,413,463,119
1657302750615,620,607,151
1657302750655,-171,1511,178
1657302750695,-2018,2047,493
1657302750735,-2048,1615,675
1657302750775,-1736,1097,206
1657302750815,-1380,647,-10
1657302750855,-1297,276,5
1657302750895,-1176,136,-145
1657302750935,-867,-7,-318
1657302750975,-624,-119,-328
1657302751015,-615,-13,-358
1657302751055,-1391,148,-262
1657302751095,-2048,1180,56
1657302751135,-2048,1693,261
1657302751175,-1708,1609,342
1657302751215,-1001,1422,312
1657302751255,-405,835,292
1657302751295,72,440,385
1657302751335,304,228,279
1657302751375,498,165,117
1657302751415,479,298,107
1657302751455,422,642,142
1657302751495,664,1207,276
1657302751535,258,2047,854
1657302751575,-2048,2047,1412
1657302751615,-2048,2047,875
1657302751655,-1665,1437,973
1657302751695,-1435,477,720
1657302751735,-1139,13,419
1657302751775,-1348,11,-59
1657302751815,-1039,123,-684
1657302751855,-676,57,-913
1657302751895,-1153,-108,-121
1657302751935,-2048,1047,747
1657302751975,-2048,2047,1053
1657302752015,-1805,2047,1355
1657302752055,-977,1935,1053
1657302752095,-183,1376,667
1657302752135,282,802,392
1657302752175,679,383,283
1657302752215,911,163,189
1657302752255,919,263,224
1657302752295,934,591,115
1657302752335,769,1446,273
1657302752375,-2048,2047,1152
1657302752415,-2048,2047,867
1657302752455,-1866,1419,326
1657302752495,-1736,707,176
1657302752535,-1644,334,11
1657302752575,-1069,93,-295
1657302752615,-675,-332,-314
1657302752655,-601,-450,-233
1657302752695,-788,-118,-227
1657302752735,-1690,135,94
1657302752775,-2048,1111,464
1657302752815,-2048,1977,468
1657302752855,-1550,1864,260
1657302752895,-859,1727,-79
1657302752935,-319,897,135
1657302752975,41,337,428
1657302753015,358,206,341
1657302753055,519,151,231
1657302753095,585,294,265
1657302753135,644,612,229
1657302753175,810,1008,415
1657302753215,-1227,2047,877
1657302753255,-2048,2047,854
1657302753295,-2048,1805,344
1657302753335,-1309,1302,416
1657302753375,-1144,558,25
1657302753415,-1277,573,-118
1657302753455,-1088,228,-238
1657302753495,-841,38,-298
1657302753535,-702,-36,-369
1657302753575,-1138,-9,-28
1657302753615,-2048,589,635
1657302753655,-2048,1976,645
1657302753695,-1814,2038,746
1657302753735,-1266,1866,757
1657302753775,-721,1287,682
1657302753815,-40,903,555
1657302753855,378,501,362
1657302753895,705,114,232
1657302753935,904,67,138
1657302753975,946,414,123
1657302754015,1077,919,298
1657302754055,-44,2047,944
1657302754095,-2048,2047,1455
1657302754135,-2048,1815,769
1657302754175,-1678,1045,364
1657302754215,-1420,359,273
1657302754255,-1275,295,-82
1657302754295,-1065,111,-199
1657302754335,-817,-299,-131
1657302754375,-695,-295,-201
1657302754415,-1353,159,61
1657302754455,-2048,903,623
1657302754495,-2048,1861,872
1657302754535,-1887,1813,725
1657302754575,-1409,1703,543
1657302754615,-736,1223,460
1657302754655,-124,872,423
1657302754695,363,475,294
1657302754735,679,228,239
1657302754775,839,193,205
1657302754815,1008,300,152
1657302754855,1140,770,21
1657302754895,-1298,2047,939
1657302754935,-2048,2047,1130
1657302754975,-2048,1385,696
1657302755015,-1652,766,86
1657302755055,-1246,326,-33
1657302755095,-1011,171,-188
1657302755135,-932,-96,-209
1657302755175,-860,-234,-224
1657302755215,-922,-68,-177
1657302755255,-1330,32,-38
1657302755295,-2048,571,418
1657302755335,-2048,1490,665
1657302755375,-2048,1793,759
1657302755415,-1326,1639,546
1657302755455,-642,1230,282
1657302755495,-62,789,225
1657302755535,307,470,227
1657302755575,498,335,182
1657302755615,696,250,182
1657302755655,676,500,167
1657302755695,926,917,136
1657302755735,-679,2047,590
1657302755775,-2048,2047,758
1657302755815,-2048,1300,552
1657302755855,-1486,578,194
1657302755895,-1187,287,109
1657302755935,-1020,31,-19
1657302755975,-935,-104,-76
1657302756015,-939,-330,-67
1657302756055,-921,-224,-166
1657302756095,-1672,136,-76
1657302756135,-2048,808,312
1657302756175,-2048,1581,510
1657302756215,-2048,1776,613
1657302756255,-1379,1628,451
1657302756295,-574,1089,366
1657302756335,75,690,472
1657302756375,493,440,440
1657302756415,795,319,242
1657302756455,979,298,157
1657302756495,1168,577,87
1657302756535,-185,1934,409
1657302756575,-2048,2047,1079
1657302756615,-2048,1500,834
1657302756655,-1811,1093,203
1657302756695,-1303,495,-14
1657302756735,-1122,254,-79
1657302756775,-1031,53,-149
1657302756815,-1066,-58,-93
1657302756855,-939,-160,-86
1657302756895,-1203,-53,-51
1657302756935,-1990,368,121
1657302756975,-2048,1319,362
1657302757015,-2048,1745,527
1657302757055,-1646,1719,554
1657302757095,-818,1327,373
1657302757135,-242,875,407
1657302757175,225,475,393
1657302757215,484,385,305
1657302757255,735,379,161
1657302757295,776,473,180
1657302757335,856,758,118
1657302757375,-1322,2047,474
1657302757415,-2048,2047,690
1657302757455,-2048,937,351
1657302757495,-1547,505,-84
1657302757535,-1370,206,-152
1657302757575,-1117,73,-217
1657302757615,-737,-67,-246
1657302757655,-549,-363,-85
1657302757695,-590,-338,-74
1657302757735,-1260,-33,-127
1657302757775,-2048,802,330
1657302757815,-2048,1145,560
1657302757855,-2048,1280,665
1657302757895,-1477,1320,417
1657302757935,-746,1100,295
1657302757975,-78,779,304
1657302758015,345,488,263
1657302758055,630,292,198
1657302758095,795,187,168
1657302758135,916,379,157
1657302758175,706,955,77
1657302758215,-2048,2047,610
1657302758255,-2048,2047,587
1657302758295,-2048,740,342
1657302758335,-1458,259,-32
1657302758375,-1171,9,-76
1657302758415,-874,-216,-172
1657302758455,-678,-327,-176
1657302758495,-571,-338,-183
1657302758535,-949,-186,-202
1657302758575,-2048,494,192
1657302758615,-2048,1213,610
1657302758655,-2048,1555,693
1657302758695,-1675,1551,483
1657302758735,-731,1229,383
1657302758775,17,680,293
1657302758815,449,277,275
1657302758855,567,218,261
1657302758895,761,306,204
1657302758935,1064,285,97
1657302758975,942,1076,31
1657302759015,-2048,2047,938
1657302759055,-2048,1691,841
1657302759095,-1772,430,156
1657302759135,-1439,279,27
1657302759175,-1053,-99,-12
1657302759215,-689,-309,-124
1657302759255,-473,-508,-229
1657302759295,-518,-676,-257
1657302759335,-1792,-34,-140
1657302759375,-2048,306,-5
1657302759415,-2048,989,337
1657302759455,-2048,1638,209
1657302759495,-1496,1385,38
1657302759535,-403,924,96
1657302759575,173,434,167
1657302759615,540,195,306
1657302759655,588,198,292
1657302759695,673,343,296
1657302759735,828,307,294
1657302759775,476,1280,354
1657302759815,-2048,2047,787
1657302759855,-2048,2047,801
1657302759895,-2048,1618,179
1657302759935,-1760,491,-116
1657302759975,-1417,38,14
1657302760015,-965,-230,-206
1657302760055,-714,-356,-323
1657302760095,-668,-255,-293
1657302760135,-884,-71,-304
1657302760175,-1830,76,-6
1657302760215,-2048,1041,607
1657302760255,-2048,1756,664
1657302760295,-1741,1833,548
1657302760335,-842,1457,297
1657302760375,-83,862,407
1657302760415,310,484,424
1657302760455,543,266,358
1657302760495,881,216,290
1657302760535,950,448,235
1657302760575,1021,1091,258
1657302760615,-2048,2047,932
1657302760655,-2048,2047,717
1657302760695,-2048,1201,228
1657302760735,-1447,480,20
1657302760775,-1198,162,-71
1657302760815,-926,-55,-213
1657302760855,-762,-261,-245
1657302760895,-666,-388,-264
1657302760935,-915,-123,-271
1657302760975,-1975,207,114
1657302761015,-2048,603,661
1657302761055,-2048,1731,896
1657302761095,-1825,1881,528
1657302761135,-1010,1583,236
1657302761175,-392,1024,315
1657302761215,203,546,379
1657302761255,532,309,280
1657302761295,730,227,170
1657302761335,761,349,210
1657302761375,956,581,154
1657302761415,-69,1598,595
1657302761455,-2048,2047,1228
1657302761495,-2048,1916,637
1657302761535,-1611,681,128
1657302761575,-1379,307,77
1657302761615,-1103,130,-69
1657302761655,-747,-92,-245
1657302761695,-614,-253,-168
1657302761735,-659,-295,-116
1657302761775,-1088,-188,-170
1657302761815,-2048,395,63
1657302761855,-2048,1196,483
1657302761895,-2048,1493,842
1657302761935,-1562,1664,690
1657302761975,-778,1281,336
1657302762015,-161,767,326
1657302762055,279,429,251
1657302762095,424,349,279
1657302762135,658,252,229
1657302762175,882,390,253
1657302762215,1080,942,357
1657302762255,-1368,2047,950
1657302762295,-2048,2047,648
1657302762335,-2048,1191,-34
1657302762375,-1577,424,-2
1657302762415,-1225,49,-10
1657302762455,-881,-79,-170
1657302762495,-509,-397,-213
1657302762535,-513,-731,-131
1657302762575,-769,-556,-193
1657302762615,-2048,274,-97
1657302762655,-2048,1068,336
1657302762695,-2048,1932,477
1657302762735,-1924,1759,447
1657302762775,-1086,1564,62
1657302762815,-485,988,132
1657302762855,34,385,446
1657302762895,355,14,431
1657302762935,476,53,318
1657302762975,565,263,378
1657302763015,896,262,263
1657302763055,769,915,516
1657302763095,-2048,2047,1017
1657302763135,-2048,2047,575
1657302763175,-1816,1063,-48
1657302763215,-1336,476,-123
1657302763255,-1203,249,-107
1657302763295,-900,0,-232
1657302763335,-802,-216,-167
1657302763375,-1005,-237,-186
1657302763415,-1262,138,-354
1657302763455,-2048,559,-224
1657302763495,-2048,985,105
1657302763535,-2048,1558,426
1657302763575,-1850,1569,440
1657302763615,-834,1459,287
1657302763655,-11,854,206
1657302763695,469,334,267
1657302763735,627,138,394
1657302763775,798,154,295
1657302763815,1003,246,183
1657302763855,1201,806,149
1657302763895,-1367,2047,1064
1657302763935,-2048,2047,983
1657302763975,-2048,1435,313
1657302764015,-1402,614,-35
1657302764055,-1206,395,-68
1657302764095,-981,123,-172
1657302764135,-777,-19,-239
1657302764175,-641,-138,-224
1657302764215,-714,-338,-206
1657302764255,-1569,-124,22
1657302764295,-2048,640,299
1657302764335,-2048,1366,547
1657302764375,-2048,1853,825
1657302764415,-1376,1765,561
1657302764455,-578,1300,514
1657302764495,41,729,450
1657302764535,493,382,339
1657302764575,694,248,177
1657302764615,897,259,180
1657302764655,1018,363,154
1657302764695,947,1487,393
1657302764735,-2048,2047,1335
1657302764775,-2048,2047,1069
1657302764815,-2048,1180,220
1657302764855,-1883,465,68
1657302764895,-1448,78,-26
1657302764935,-881,-40,-259
1657302764975,-599,-235,-301
1657302765015,-531,-433,-180
1657302765055,-1017,-178,-100
1657302765095,-2048,239,46
1657302765135,-2048,1434,381
1657302765175,-2048,1629,476
1657302765215,-1567,1733,413
1657302765255,-804,1569,137
1657302765295,-230,878,333
1657302765335,244,369,476
1657302765375,544,247,386
1657302765415,890,307,189
1657302765455,921,444,242
1657302765495,968,890,257
1657302765535,-1802,2047,859
1657302765575,-2048,2047,465
1657302765615,-2048,1680,183
1657302765655,-1610,495,197
1657302765695,-1492,-22,107
1657302765735,-1043,-19,-209
1657302765775,-714,-231,-345
1657302765815,-603,-469,-287
1657302765855,-849,-121,-383
1657302765895,-1748,341,-419
1657302765935,-2048,1137,134
1657302765975,-2048,1564,447
1657302766015,-2048,2010,362
1657302766055,-1302,1771,34
1657302766095,-563,1142,148
1657302766135,12,609,262
1657302766175,486,319,296
1657302766215,639,284,231
1657302766255,854,298,322
1657302766295,943,408,392
1657302766335,722,1245,564
1657302766375,-2048,2047,1174
1657302766415,-2048,2047,820
1657302766455,-2048,1022,12
1657302766495,-1610,422,-216
1657302766535,-1161,193,-332
1657302766575,-866,61,-368
1657302766615,-717,-322,-197
1657302766655,-652,-592,-50
1657302766695,-1115,-70,-201
1657302766735,-2048,335,-72
1657302766775,-2048,1127,218
1657302766815,-2048,1345,264
1657302766855,-1632,1499,322
1657302766895,-661,1327,254
1657302766935,-85,825,410
1657302766975,229,484,480
1657302767015,500,401,311
1657302767055,614,341,250
1657302767095,494,505,290
1657302767135,672,844,329
1657302767175,-1584,2047,414
1657302767215,-2048,2047,391
1657302767255,-1839,1226,443
1657302767295,-1520,699,188
1657302767335,-1163,368,-61
1657302767375,-931,174,-251
1657302767415,-802,-136,-259
1657302767455,-798,-325,-233
1657302767495,-893,-122,-281
1657302767535,-1600,433,-99
1657302767575,-2048,1090,651
1657302767615,-2048,1833,702
1657302767655,-1630,1856,356
1657302767695,-1062,1316,271
1657302767735,-512,805,453
1657302767775,-13,442,426
1657302767815,273,229,313
1657302767855,384,61,306
1657302767895,485,297,234
1657302767935,577,653,44
1657302767975,944,888,-93
1657302768015,-1727,2047,408
1657302768055,-2048,2047,528
1657302768095,-2047,940,189
1657302768135,-1376,540,-124
1657302768175,-1152,242,-162
1657302768215,-914,-31,-137
1657302768255,-861,-340,-8
1657302768295,-725,-515,-80
1657302768335,-991,-247,-254
1657302768375,-2046,81,-128
1657302768415,-2048,1027,27
1657302768455,-2048,1516,127
1657302768495,-2048,1612,441
1657302768535,-1141,1525,250
1657302768575,-382,1071,297
1657302768615,163,654,457
1657302768655,536,395,429
1657302768695,797,301,321
1657302768735,776,354,354
1657302768775,937,644,239
1657302768815,219,1509,474
1657302768855,-2048,2047,724
1657302768895,-2048,2047,645
1657302768935,-1178,1361,372
1657302768975,-1876,1720,813
1657302769015,-1827,570,731
1657302769055,-1689,260,399
1657302769095,-1316,-355,160
1657302769135,-969,-37,-440
1657302769175,-816,98,-627
1657302769215,-1968,567,56
1657302769255,-2048,1503,676
1657302769295,-2048,2047,728
1657302769335,-1400,1825,753
1657302769375,-821,1594,747
1657302769415,-64,962,675
1657302769455,385,650,615
1657302769495,619,392,415
1657302769535,765,255,318
1657302769575,902,282,249
1657302769615,1209,952,137
1657302769655,-192,2047,849
1657302769695,-2048,2047,1008
1657302769735,-2048,1413,552
1657302769775,-1323,667,-11
1657302769815,-1029,567,-249
1657302769855,-1059,251,-183
1657302769895,-1070,-271,11
1657302769935,-1113,-437,78
1657302769975,-1259,-66,-33
1657302770015,-1760,283,144
1657302770055,-2048,1524,351
1657302770095,-2048,2047,313
1657302770135,-1538,2047,409
1657302770175,-900,1663,268
1657302770215,-164,1124,408
1657302770255,252,663,515
1657302770295,643,440,550
1657302770335,1024,347,432
1657302770375,1413,290,210
1657302770415,1245,797,433
1657302770455,-1876,2047,1116
1657302770495,-2048,2047,971
1657302770535,-2048,1317,393
1657302770575,-1404,678,-69
1657302770615,-1060,431,-195
1657302770655,-879,160,-167
1657302770695,-802,-41,-136
1657302770735,-705,-238,-55
1657302770775,-487,-274,-142
1657302770815,-688,-118,-209
1657302770855,-2048,1988,141
1657302770895,-2048,2047,975
1657302770935,-1588,1921,383
1657302770975,-1094,1626,525
1657302771015,-464,1179,543
1657302771055,92,753,523
1657302771095,438,408,469
1657302771135,626,163,381
1657302771175,777,73,407
1657302771215,806,418,482
1657302771255,904,1220,525
1657302771295,-436,2047,1291
1657302771335,-2048,2047,1502
1657302771375,-2048,1730,873
1657302771415,-1679,927,296
1657302771455,-1168,430,-60
1657302771495,-907,302,-381
1657302771535,-765,151,-531
1657302771575,-686,32,-520
1657302771615,-745,10,-424
1657302771655,-1380,233,81
1657302771695,-2048,1457,1112
1657302771735,-2048,2047,1010
1657302771775,-1489,2047,948
1657302771815,-912,1830,899
1657302771855,-307,1175,869
1657302771895,302,651,622
1657302771935,646,277,469
1657302771975,1043,9,305
1657302772015,1158,113,313
1657302772055,1147,713,238
1657302772095,1113,1637,468
1657302772135,-192,2047,1557
1657302772175,-2048,2047,2045
1657302772215,-2008,2047,1206
1657302772255,-1959,1514,956
1657302772295,-1502,705,416
1657302772335,-1123,638,-221
1657302772375,-886,274,-373
1657302772415,-825,77,-218
1657302772455,-904,262,-25
1657302772495,-1232,322,394
1657302772535,-2048,1277,1204
1657302772575,-2048,2047,995
1657302772615,-1734,2047,928
1657302772655,-1325,2031,682
1657302772695,-523,1430,536
1657302772735,191,948,472
1657302772775,596,402,365
1657302772815,868,65,255
1657302772855,1020,226,240
1657302772895,1319,220,40
1657302772935,1372,832,161
1657302772975,237,2047,1203
1657302773015,-2048,2047,2046
1657302773055,-2048,1892,1654
1657302773095,-1910,1094,800
1657302773135,-1610,663,389
1657302773175,-1045,169,55
1657302773215,-714,-108,-105
1657302773255,-813,-38,-79
1657302773295,-688,-133,-181
1657302773335,-1256,295,-110
1657302773375,-2048,916,440
1657302773415,-2048,1918,783
1657302773455,-1888,1862,429
1657302773495,-1499,1672,586
1657302773535,-780,1285,595
1657302773575,54,980,548
1657302773615,534,604,332
1657302773655,823,361,353
1657302773695,1214,94,269
1657302773735,1171,523,177
1657302773775,1075,1434,272
1657302773815,-1096,2047,1476
1657302773855,-2048,2047,1184
1657302773895,-2048,2047,894
1657302773935,-1893,460,731
1657302773975,-1236,189,162
1657302774015,-805,30,-98
1657302774055,-673,-218,-239
1657302774095,-685,-264,-229
1657302774135,-980,90,-87
1657302774175,-1859,471,369
1657302774215,-2048,1233,954
1657302774255,-2048,2047,653
1657302774295,-1808,2047,532
1657302774335,-1001,1778,302
1657302774375,-359,1203,383
1657302774415,145,784,407
1657302774455,536,481,423
1657302774495,1133,209,214
1657302774535,1328,315,217
1657302774575,1268,599,193
1657302774615,790,1460,849
1657302774655,-2048,2047,2046
1657302774695,-2048,2029,871
1657302774735,-1853,769,103
1657302774775,-1379,275,12
1657302774815,-979,7,-190
1657302774855,-701,-154,-281
1657302774895,-491,-329,-258
1657302774935,-579,-297,-174
1657302774975,-1349,137,-26
1657302775015,-2048,459,408
1657302775055,-2048,1029,855
1657302775095,-2048,1588,899
1657302775135,-1649,1683,577
1657302775175,-809,1356,369
1657302775215,-44,874,461
1657302775255,411,461,489
1657302775295,767,346,382
1657302775335,1107,224,216
1657302775375,1278,323,254
1657302775415,1213,1322,336
1657302775455,-660,2047,1429
1657302775495,-2048,2047,1959
1657302775535,-2048,1677,1127
1657302775575,-1905,927,436
1657302775615,-1492,312,219
1657302775655,-1248,68,-76
1657302775695,-1153,-158,-291
1657302775735,-973,-305,-371
1657302775775,-1290,151,-248
1657302775815,-1835,338,116
1657302775855,-2048,992,796
1657302775895,-2048,2047,652
1657302775935,-1910,2047,864
1657302775975,-943,1865,780
1657302776015,-257,1161,727
1657302776055,260,780,509
1657302776095,533,572,390
1657302776135,794,249,262
1657302776175,1002,310,152
1657302776215,1192,697,5
1657302776255,636,1536,411
1657302776295,-2048,2047,1564
1657302776335,-2048,2047,973
1657302776375,-2048,920,496
1657302776415,-1785,279,264
1657302776455,-1235,-20,11
1657302776495,-1054,15,-183
1657302776535,-818,-315,-243
1657302776575,-552,-382,-337
1657302776615,-796,48,-393
1657302776655,-1997,336,-3
1657302776695,-2048,1032,468
1657302776735,-2048,2022,613
1657302776775,-1797,1953,590
1657302776815,-824,1627,417
1657302776855,-109,1088,418
1657302776895,447,502,567
1657302776935,831,259,433
1657302776975,867,262,363
1657302777015,840,439,218
1657302777055,1057,901,159
1657302777095,-613,1874,817
1657302777135,-2048,2047,1203
1657302777175,-2048,1693,308
1657302777215,-1450,777,-83
1657302777255,-1080,445,-140
1657302777295,-860,76,-58
1657302777335,-416,-165,-242
1657302777375,-612,-249,-220
1657302777415,-1320,-123,-161
1657302777455,-1927,192,-148
1657302777495,-2048,1004,90
1657302777535,-2048,1639,166
1657302777575,-1943,1760,429
1657302777615,-1342,1518,595
1657302777655,-569,1027,725
1657302777695,55,643,667
1657302777735,470,419,501
1657302777775,850,307,291
1657302777815,1145,369,203
1657302777855,1413,686,-62
1657302777895,-247,2010,617
1657302777935,-2048,2047,1618
1657302777975,-2048,1395,867
1657302778015,-1564,613,106
1657302778055,-1079,281,-4
1657302778095,-789,-55,-155
1657302778135,-704,-232,-248
1657302778175,-893,-290,-144
1657302778215,-1130,-185,-116
1657302778255,-1659,119,-92
1657302778295,-2048,985,119
1657302778335,-2048,1503,249
1657302778375,-2048,1697,405
1657302778415,-1159,1633,162
1657302778455,-350,1000,86
1657302778495,220,476,281
1657302778535,523,216,368
1657302778575,829,331,247
1657302778615,976,382,135
1657302778655,851,675,30
1657302778695,-2048,2047,243
1657302778735,-2048,1755,356
1657302778775,-1857,493,66
1657302778815,-1214,437,-326
1657302778855,-833,142,-444
1657302778895,-675,4,-300
1657302778935,-780,-103,-99
1657302778975,-646,-370,-75
1657302779015,-539,-414,-138
1657302779055,-1900,73,70
1657302779095,-2048,839,594
1657302779135,-2048,1219,534
1657302779175,-1746,1252,454
1657302779215,-1169,1262,304
1657302779255,-469,884,197
1657302779295,78,464,252
1657302779335,350,169,228
1657302779375,510,197,158
1657302779415,633,250,112
1657302779455,741,469,-26
1657302779495,-55,1144,82
1657302779535,-2048,2047,735
1657302779575,-2048,1229,619
1657302779615,-1507,459,-44
1657302779655,-1124,334,-246
1657302779695,-913,12,-171
1657302779735,-612,-74,-152
1657302779775,-574,-169,-180
1657302779815,-653,-261,-128
1657302779855,-1045,102,-176
1657302779895,-1678,-161,-132
1657302779935,-2048,364,190
1657302779975,-2048,1231,-25
1657302780015,-2048,1419,67
1657302780055,-1164,1158,213
1657302780095,-447,855,431
1657302780135,164,476,454
1657302780175,534,229,353
1657302780215,782,89,216
1657302780255,837,191,157
1657302780295,1119,611,86
1657302780335,-476,2047,486
1657302780375,-2048,2047,805
1657302780415,-2048,1311,221
1657302780455,-1417,449,-263
1657302780495,-1053,168,-260
1657302780535,-833,-131,-205
1657302780575,-577,-353,-247
1657302780615,-597,-373,-276
1657302780655,-1115,-63,-244
1657302780695,-1870,31,-140
1657302780735,-2048,800,382
1657302780775,-2048,1217,512
1657302780815,-2048,1525,341
1657302780855,-1225,1297,222
1657302780895,-431,904,355
1657302780935,230,618,292
1657302780975,530,519,319
1657302781015,911,252,316
1657302781055,1251,393,321
1657302781095,1291,930,49
1657302781135,-2048,2047,351
1657302781175,-2048,2047,267
1657302781215,-2048,495,83
1657302781255,-1365,92,-169
1657302781295,-1260,164,-60
1657302781335,-1074,-250,-15
1657302781375,-754,-399,-161
1657302781415,-542,-468,-277
1657302781455,-759,-380,-321
1657302781495,-1718,-182,-156
1657302781535,-2048,905,38
1657302781575,-2048,1481,27
1657302781615,-2034,1623,-63
1657302781655,-1260,1352,-139
1657302781695,-497,921,157
1657302781735,107,546,346
1657302781775,526,316,400
1657302781815,942,158,223
1657302781855,973,331,95
1657302781895,1088,678,-158
1657302781935,-332,1868,254
1657302781975,-2048,2047,624
1657302782015,-2048,1773,570
1657302782055,-1698,803,-4
1657302782095,-1165,369,-88
1657302782135,-1017,197,-69
1657302782175,-822,-270,-202
1657302782215,-998,-178,-215
1657302782255,-1143,268,-330
1657302782295,-997,-29,-179
1657302782335,-2048,310,345
1657302782375,-2048,1340,501
1657302782415,-2048,1814,432
1657302782455,-1577,1598,421
1657302782495,-742,1157,531
1657302782535,-1,776,423
1657302782575,379,484,325
1657302782615,680,374,229
1657302782655,938,443,23
1657302782695,1147,448,-13
1657302782735,1025,1144,214
1657302782775,-2048,2047,1048
1657302782815,-2048,2047,988
1657302782855,-2048,980,333
1657302782895,-1322,434,-26
1657302782935,-1020,104,-157
1657302782975,-987,-83,-297
1657302783015,-1154,-295,-281
1657302783055,-1077,-255,-200
1657302783095,-1045,-46,-170
1657302783135,-1606,191,54
1657302783175,-2048,855,324
1657302783215,-2048,1436,698
1657302783255,-1976,1370,738
1657302783295,-1143,993,684
1657302783335,-427,745,649
1657302783375,161,571,424
1657302783415,604,441,291
1657302783455,850,342,199
1657302783495,820,613,241
1657302783535,1005,1056,111
1657302783575,107,1781,731
1657302783615,-2048,2047,1643
1657302783655,-2048,1946,899
1657302783695,-1853,806,294
1657302783735,-1319,328,76
1657302783775,-955,118,-174
1657302783815,-743,-75,-396
1657302783855,-773,-398,-223
1657302783895,-997,-424,-48
1657302783935,-1335,36,-44
1657302783975,-2048,879,141
1657302784015,-2048,1393,463
1657302784055,-2048,1729,650
1657302784095,-1472,1708,429
1657302784135,-547,1053,384
1657302784175,37,583,506
1657302784215,438,318,401
1657302784255,878,146,213
1657302784295,1085,136,255
1657302784335,944,520,350
1657302784375,899,1322,740
1657302784415,-2048,2047,1665
1657302784455,-2048,2047,1376
1657302784495,-2048,1387,690
1657302784535,-1676,665,261
1657302784575,-1523,354,48
1657302784615,-1285,157,-265
1657302784655,-835,-200,-476
1657302784695,-675,-189,-581
1657302784735,-629,-111,-512
1657302784775,-1247,-117,-43
1657302784815,-2048,1003,572
1657302784855,-2048,2047,553
1657302784895,-1854,1983,448
1657302784935,-1142,1423,428
1657302784975,-413,920,582
1657302785015,152,613,500
1657302785055,584,282,392
1657302785095,878,228,276
1657302785135,949,407,179
1657302785175,955,614,54
1657302785215,504,1297,273
1657302785255,-2048,2047,1036
1657302785295,-2048,2047,658
1657302785335,-1772,1028,108
1657302785375,-1605,917,-252
1657302785415,-1529,324,-198
1657302785455,-1176,226,-327
1657302785495,-843,-5,-257
1657302785535,-476,-438,-185
1657302785575,-418,-513,-206
1657302785615,-981,-287,1
1657302785655,-2048,938,429
1657302785695,-2048,1421,445
1657302785735,-2048,1447,663
1657302785775,-1365,1426,322
1657302785815,-670,979,265
1657302785855,-123,740,230
1657302785895,323,376,207
1657302785935,590,146,243
1657302785975,619,270,238
1657302786015,656,453,239
1657302786055,917,977,96
1657302786095,-1528,2047,610
1657302786135,-2048,2047,510
1657302786175,-2048,1086,106
1657302786215,-1567,423,-101
1657302786255,-1208,273,-313
1657302786295,-993,98,-301
1657302786335,-703,-232,-229
1657302786375,-723,-120,-204
1657302786415,-528,-291,-422
1657302786455,-1585,-518,-19
1657302786495,-2048,1025,367
1657302786535,-2048,1785,55
1657302786575,-1785,1386,25
1657302786615,-1059,1215,-135
1657302786655,-445,867,-33
1657302786695,13,508,95
1657302786735,350,321,200
1657302786775,569,417,241
1657302786815,667,697,249
1657302786855,821,848,34
1657302786895,-584,1621,353
1657302786935,-2048,2047,996
1657302786975,-2048,1550,542
1657302787015,-1760,701,10
1657302787055,-1346,336,-82
1657302787095,-1096,133,-112
1657302787135,-867,-65,-144
1657302787175,-652,-288,-165
1657302787215,-642,-163,-206
1657302787255,-899,8,-229
1657302787295,-1920,268,41
1657302787335,-2048,805,420
1657302787375,-2048,1519,378
1657302787415,-1724,1517,116
1657302787455,-858,1149,136
1657302787495,-177,638,318
1657302787535,183,473,498
1657302787575,461,368,372
1657302787615,841,324,235
1657302787655,830,622,111
1657302787695,628,1059,139
1657302787735,-2044,2047,511
1657302787775,-2048,2047,426
1657302787815,-2047,1050,117
1657302787855,-1295,641,-223
1657302787895,-976,373,-363
1657302787935,-846,69,-225
1657302787975,-776,-122,-121
1657302788015,-787,-249,-75
1657302788055,-937,-226,-75
1657302788095,-1557,151,28
1657302788135,-2048,699,302
1657302788175,-2048,1825,425
1657302788215,-1956,1694,350
1657302788255,-1347,1379,459
1657302788295,-760,1029,493
1657302788335,-24,677,386
1657302788375,404,440,317
1657302788415,771,332,204
1657302788455,959,336,178
1657302788495,1090,524,129
1657302788535,663,1008,250
1657302788575,-2048,2047,1104
1657302788615,-2048,1646,692
1657302788655,-1918,552,16
1657302788695,-1447,315,-168
1657302788735,-1128,145,-244
1657302788775,-856,-113,-127
1657302788815,-738,-348,-52
1657302788855,-484,-476,-102
1657302788895,-567,-436,-125
1657302788935,-1946,7,65
1657302788975,-2048,1086,515
1657302789015,-2048,1833,1063
1657302789055,-1789,1125,1148
1657302789095,-891,1131,683
1657302789135,-398,891,372
1657302789175,109,559,323
1657302789215,386,224,344
1657302789255,595,89,233
1657302789295,751,244,111
1657302789335,857,605,11
1657302789375,-115,1204,373
1657302789415,-2048,2047,1529
1657302789455,-2048,1444,864
1657302789495,-1938,720,420
1657302789535,-1310,455,-26
1657302789575,-983,316,-230
1657302789615,-883,132,-216
1657302789655,-853,-126,-51
1657302789695,-789,-344,34
1657302789735,-956,-190,10
1657302789775,-2048,387,164
1657302789815,-2048,1176,480
1657302789855,-2048,1531,441
1657302789895,-1623,1265,460
1657302789935,-1108,1101,457
1657302789975,-400,703,322
1657302790015,154,449,344
1657302790055,417,298,293
1657302790095,682,376,187
1657302790135,791,535,106
1657302790175,1021,807,94
1657302790215,-1069,2047,738
1657302790255,-2048,2047,1002
1657302790295,-2048,1170,359
1657302790335,-1539,501,46
1657302790375,-1106,244,-149
1657302790415,-855,43,-221
1657302790455,-769,-161,-219
1657302790495,-858,-208,-144
1657302790535,-1220,173,-142
1657302790575,-1634,265,-51
1657302790615,-2048,618,374
1657302790655,-2048,1346,552
1657302790695,-2005,1475,288
1657302790735,-1404,1316,337
1657302790775,-650,858,454
1657302790815,56,598,417
1657302790855,505,371,337
1657302790895,919,237,207
1657302790935,932,426,198
1657302790975,1063,677,60
1657302791015,-19,1433,449
1657302791055,-2048,2047,1012
1657302791095,-2048,1758,651
1657302791135,-1799,809,261
1657302791175,-1120,375,70
1657302791215,-1236,364,-29
1657302791255,-1733,188,237
1657302791295,-1004,-454,103
1657302791335,-462,-515,-201
1657302791375,-710,-319,-282
1657302791415,-2048,326,219
1657302791455,-2048,1144,602
1657302791495,-2048,1814,615
1657302791535,-1287,1498,398
1657302791575,-577,1059,440
1657302791615,17,697,455
1657302791655,436,381,359
1657302791695,691,193,282
1657302791735,943,371,183
1657302791775,1214,937,97
1657302791815,445,1663,680
1657302791855,-2048,2047,1459
1657302791895,-2048,2047,-11
1657302791935,-1863,861,14
1657302791975,-1210,363,-177
1657302792015,-930,88,-281
1657302792055,-777,-222,-227
1657302792095,-741,-349,-148
1657302792135,-746,-261,-266
1657302792175,-1292,123,-172
1657302792215,-2048,620,21
1657302792255,-2048,1688,424
1657302792295,-2046,1921,558
1657302792335,-1183,1662,406
1657302792375,-480,1145,277
1657302792415,42,753,402
1657302792455,445,471,309
1657302792495,789,379,246
1657302792535,994,270,235
1657302792575,991,648,228
1657302792615,485,1528,566
1657302792655,-2048,2047,1406
1657302792695,-2048,2047,642
1657302792735,-1912,1294,210
1657302792775,-1224,402,530
1657302792815,-1023,277,-147
1657302792855,-965,69,-292
1657302792895,-1110,-119,-312
1657302792935,-1063,-58,-422
1657302792975,-1370,-71,-96
1657302793015,-2048,587,347
1657302793055,-2048,1772,490
1657302793095,-2005,2047,508
1657302793135,-960,1825,450
1657302793175,-354,1239,433
1657302793215,-7,771,388
1657302793255,270,470,374
1657302793295,417,364,288
1657302793335,689,237,231
1657302793375,922,656,365
1657302793415,916,1523,344
1657302793455,-765,2047,1270
1657302793495,-2048,2047,1400
1657302793535,-2048,1595,27
1657302793575,-1141,1188,86
1657302793615,-986,458,-414
1657302793655,-747,371,-516
1657302793695,-511,256,-654
1657302793735,-637,-29,-179
1657302793775,-1401,-191,417
1657302793815,-1862,258,516
1657302793855,-2048,1705,879
1657302793895,-2048,2022,967
1657302793935,-1396,1860,826
1657302793975,-786,1580,515
1657302794015,-120,957,313
1657302794055,347,531,220
1657302794095,675,426,43
1657302794135,833,663,-72
1657302794175,988,394,177
1657302794215,928,993,155
1657302794255,-724,2047,820
1657302794295,-2048,2047,1250
1657302794335,-1956,1408,916
1657302794375,-1536,977,366
1657302794415,-1130,535,40
1657302794455,-985,269,-85
1657302794495,-969,86,-49
1657302794535,-970,-209,147
1657302794575,-1060,-47,53
1657302794615,-1373,383,-5
1657302794655,-2048,928,224
1657302794695,-2048,1453,426
1657302794735,-1740,1636,590
1657302794775,-908,1470,595
1657302794815,-294,1177,564
1657302794855,37,980,453
1657302794895,214,699,265
1657302794935,432,347,137
1657302794975,679,383,8
1657302795015,631,879,-12
1657302795055,138,1452,200
1657302795095,-2048,2047,906
1657302795135,-2048,1683,462
1657302795175,-1536,680,386
1657302795215,-1216,222,234
1657302795255,-906,43,-10
1657302795295,-810,-111,-164
1657302795335,-728,-248,-294
1657302795375,-831,-375,-247
1657302795415,-1922,235,-66
1657302795455,-2048,875,284
1657302795495,-2048,1750,563
1657302795535,-2048,1847,535
1657302795575,-1438,1621,403
1657302795615,-791,1233,369
1657302795655,-164,797,407
1657302795695,319,392,420
1657302795735,679,166,378
1657302795775,946,283,327
1657302795815,1115,474,165
1657302795855,1101,1172,213
1657302795895,-2048,2047,701
1657302795935,-2048,2047,1174
1657302795975,-2048,-266,931
1657302796015,-1075,45,-18
1657302796055,-464,-144,-262
1657302796095,-211,-363,-233
1657302796135,-639,-340,-46
1657302796175,-1017,-169,59
1657302796215,-1546,-14,73
1657302796255,-2048,244,344
1657302796295,-2048,513,570
1657302796335,-2048,1133,906
1657302796375,-2000,1265,872
1657302796415,-949,1174,605
1657302796455,-60,741,416
1657302796495,481,379,285
1657302796535,617,335,137
1657302796575,756,232,9
1657302796615,723,453,107
1657302796655,746,988,23
1657302796695,-1717,2047,697
1657302796735,-2048,2047,1082
1657302796775,-2048,786,642
1657302796815,-1534,464,86
1657302796855,-1071,169,-91
1657302796895,-715,-75,-174
1657302796935,-594,-209,-188
1657302796975,-823,-180,-72
1657302797015,-1111,7,-24
1657302797055,-1405,82,-42
1657302797095,-2048,398,271
1657302797135,-2048,1057,404
1657302797175,-2048,1376,262
1657302797215,-1622,1229,122
1657302797255,-957,879,180
1657302797295,-345,714,344
1657302797335,256,475,338
1657302797375,586,278,402
1657302797415,790,351,311
1657302797455,1013,693,113
1657302797495,1196,919,67
1657302797535,-1735,2047,847
1657302797575,-2048,2047,586
1657302797615,-2048,1282,-5
1657302797655,-1638,651,-254
1657302797695,-1095,229,-211
1657302797735,-1078,-41,-50
1657302797775,-984,-126,-381
1657302797815,-827,-171,-265
1657302797855,-717,-307,-149
1657302797895,-1358,102,-158
1657302797935,-2048,1061,-127
1657302797975,-2048,2047,-18
1657302798015,-1577,1676,74
1657302798055,-1099,1344,412
1657302798095,-392,848,457
1657302798135,178,597,434
1657302798175,493,340,338
1657302798215,862,242,257
1657302798255,908,352,287
1657302798295,1133,724,76
1657302798335,-638,2047,441
1657302798375,-2048,2047,698
1657302798415,-2048,1859,579
1657302798455,-1770,980,84
1657302798495,-1269,422,30
1657302798535,-1044,48,35
1657302798575,-999,-270,-43
1657302798615,-955,-286,-86
1657302798655,-927,-56,-239
1657302798695,-1323,135,-131
1657302798735,-2048,854,265
1657302798775,-2048,1876,472
1657302798815,-2048,2047,441
1657302798855,-1182,1582,465
1657302798895,-622,1254,613
1657302798935,100,817,480
1657302798975,506,417,305
1657302799015,739,114,123
1657302799055,904,163,-31
1657302799095,848,383,54
1657302799135,1025,816,117
1657302799175,-1016,2047,677
1657302799215,-2048,2047,853
1657302799255,-2048,1389,447
1657302799295,-1720,781,-22
1657302799335,-1254,455,-172
1657302799375,-1089,257,-197
1657302799415,-1059,109,-165
1657302799455,-826,-138,-167
1657302799495,-735,-95,-130
1657302799535,-795,5,-167
1657302799575,-1341,224,-110
1657302799615,-2048,1383,60
1657302799655,-2048,1834,-1
1657302799695,-1615,1685,-15
1657302799735,-1105,1226,51
1657302799775,-566,808,246
1657302799815,-46,441,330
1657302799855,341,211,337
1657302799895,538,201,277
1657302799935,847,253,229
1657302799975,737,513,414
1657302800015,762,1055,491
1657302800055,-735,2047,878
1657302800095,-2048,2047,1205
1657302800135,-2048,1803,977
1657302800175,-1990,1429,336
1657302800215,-1742,782,-92
1657302800255,-1278,466,-327
1657302800295,-1070,76,-373
1657302800335,-1282,-39,-176
1657302800375,-1029,118,-357
1657302800415,-1239,419,-222
1657302800455,-2048,849,262
1657302800495,-2048,1637,405
1657302800535,-1895,1893,396
1657302800575,-1339,1592,432
1657302800615,-687,1095,572
1657302800655,-84,760,609
1657302800695,469,493,578
1657302800735,965,208,448
1657302800775,1323,300,482
1657302800815,1374,656,451
1657302800855,1173,1683,868
1657302800895,-1252,2047,1469
1657302800935,-2048,2047,1645
1657302800975,-2048,1850,1623
1657302801015,-2048,1137,458
1657302801055,-1326,557,-112
1657302801095,-1225,136,-287
1657302801135,-903,-35,-570
1657302801175,-722,-78,-637
1657302801215,-914,56,-338
1657302801255,-2048,509,552
1657302801295,-2048,2047,1325
1657302801335,-2048,2047,1451
1657302801375,-673,2047,1568
1657302801415,552,1159,1162
1657302801455,1518,552,582
1657302801495,2046,-68,178
1657302801535,1899,445,401
1657302801575,1258,1003,380
1657302801615,952,1937,1013
1657302801655,-2048,2047,2046
1657302801695,-2048,1935,2046
1657302801735,-2048,1767,734
1657302801775,-1825,282,318
1657302801815,-1590,285,-385
1657302801855,-1317,51,-922
1657302801895,-1191,-349,-912
1657302801935,-1252,-511,-89
1657302801975,-2048,741,1014
1657302802015,-2048,2047,989
1657302802055,-2048,2047,1406
1657302802095,-1052,2047,947
1657302802135,497,1221,761
1657302802175,1135,443,621
1657302802215,1951,66,417
1657302802255,2046,-64,247
1657302802295,1260,969,423
1657302802335,833,1666,777
1657302802375,-1709,2047,2000
1657302802415,-2048,2047,1862
1657302802455,-2048,2005,691
1657302802495,-1941,670,89
1657302802535,-1576,329,-350
1657302802575,-1101,142,-683
1657302802615,-688,-174,-589
1657302802655,-530,-243,-405
1657302802695,-1098,-202,41
1657302802735,-2048,364,442
1657302802775,-2048,1675,1094
1657302802815,-2048,2047,1446
1657302802855,-1408,2047,658
1657302802895,-255,1145,764
1657302802935,376,586,797
1657302802975,945,264,485
1657302803015,1483,44,255
1657302803055,1389,239,353
1657302803095,1076,649,253
1657302803135,610,1481,528
1657302803175,-2048,2047,1668
1657302803215,-2048,2047,1084
1657302803255,-2048,1624,440
1657302803295,-1656,784,7
1657302803335,-1307,58,-143
1657302803375,-1013,-269,-226
1657302803415,-765,-481,-239
1657302803455,-767,-298,-216
1657302803495,-1490,149,-38
1657302803535,-2048,823,374
1657302803575,-2048,2047,609
1657302803615,-2048,2047,580
1657302803655,-1032,1792,273
1657302803695,-219,1000,196
1657302803735,259,461,351
1657302803775,501,411,398
1657302803815,899,271,354
1657302803855,1217,245,393
1657302803895,1238,933,470
1657302803935,696,1789,821
1657302803975,-2048,2047,1580
1657302804015,-2048,2047,1096
1657302804055,-2048,1316,338
1657302804095,-1358,390,115
1657302804135,-1082,53,-14
1657302804175,-945,-246,-281
1657302804215,-843,-167,-456
1657302804255,-985,-87,-341
1657302804295,-1676,117,71
1657302804335,-2048,778,707
1657302804375,-2048,1641,1315
1657302804415,-1915,1944,1387
1657302804455,-748,1676,790
1657302804495,-67,984,547
1657302804535,433,496,311
1657302804575,797,553,42
1657302804615,1114,475,-28
1657302804655,1026,732,162
1657302804695,909,1053,437
1657302804735,-2048,2047,1161
1657302804775,-2048,1709,1062
1657302804815,-2014,819,427
1657302804855,-1459,557,-25
1657302804895,-847,129,-201
1657302804935,-580,14,-312
1657302804975,-467,-200,-265
1657302805015,-379,-473,-146
1657302805055,-684,-404,-67
1657302805095,-2048,381,317
1657302805135,-2048,1004,507
1657302805175,-2048,1504,577
1657302805215,-1793,1624,430
1657302805255,-904,1447,119
1657302805295,-263,792,150
1657302805335,111,426,338
1657302805375,371,436,298
1657302805415,749,305,244
1657302805455,804,331,305
1657302805495,870,668,259
1657302805535,-2048,2047,220
1657302805575,-2048,1990,189
1657302805615,-1824,562,194
1657302805655,-1170,441,-245
1657302805695,-798,67,-297
1657302805735,-617,-222,-236
1657302805775,-775,-263,-244
1657302805815,-811,-266,-158
1657302805855,-1162,-436,157
1657302805895,-2048,156,484
1657302805935,-2048,1265,665
1657302805975,-2048,1470,545
1657302806015,-1649,1624,88
1657302806055,-754,1054,4
1657302806095,-158,677,185
1657302806135,334,369,261
1657302806175,669,314,289
1657302806215,1016,237,381
1657302806255,1022,770,397
1657302806295,208,1232,383
1657302806335,-2048,2047,709
1657302806375,-2048,1446,643
1657302806415,-1755,626,82
1657302806455,-1310,213,-58
1657302806495,-1003,-86,3
1657302806535,-804,-216,-46
1657302806575,-632,-383,-146
1657302806615,-542,-281,-280
1657302806655,-974,-11,-329
1657302806695,-2048,251,260
1657302806735,-2048,1269,890
1657302806775,-2048,1499,758
1657302806815,-1271,1522,324
1657302806855,-463,971,97
1657302806895,148,515,138
1657302806935,381,439,129
1657302806975,708,260,105
1657302807015,939,193,234
1657302807055,1017,716,159
1657302807095,-849,2047,528
1657302807135,-2048,2047,846
1657302807175,-2048,677,634
1657302807215,-1294,374,-108
1657302807255,-894,113,-312
1657302807295,-728,-84,-321
1657302807335,-740,-139,-237
1657302807375,-834,-227,-213
1657302807415,-1038,-34,-308
1657302807455,-1810,241,-121
1657302807495,-2048,684,501
1657302807535,-2048,1593,659
1657302807575,-1824,1593,606
1657302807615,-820,1638,183
1657302807655,-12,1024,-8
1657302807695,377,478,172
1657302807735,672,225,331
1657302807775,1006,165,324
1657302807815,1109,359,307
1657302807855,669,1169,434
1657302807895,-2048,2047,699
1657302807935,-2048,1642,877
1657302807975,-1488,572,65
1657302808015,-898,349,-269
1657302808055,-683,17,-306
1657302808095,-651,-110,-223
1657302808135,-602,-115,-189
1657302808175,-942,-231,2
1657302808215,-1926,342,166
1657302808255,-2048,1079,414
1657302808295,-2048,1837,440
1657302808335,-1628,1687,313
1657302808375,-911,1354,147
1657302808415,-433,886,239
1657302808455,191,667,232
1657302808495,772,453,223
1657302808535,1108,-2,242
1657302808575,942,106,313
1657302808615,825,884,312
1657302808655,-940,2047,810
1657302808695,-2048,2047,713
1657302808735,-2048,1342,387
1657302808775,-1223,741,-112
1657302808815,-849,325,-228
1657302808855,-756,89,-194
1657302808895,-816,62,-179
1657302808935,-778,-79,-184
1657302808975,-898,51,-133
1657302809015,-1280,206,-108
1657302809055,-2021,502,7
1657302809095,-2048,1356,18
1657302809135,-2048,1514,264
1657302809175,-1168,1389,114
1657302809215,-485,936,-112
1657302809255,-99,761,82
1657302809295,146,591,229
1657302809335,497,347,265
1657302809375,845,185,289
1657302809415,914,605,206
1657302809455,796,1303,238
1657302809495,-2048,2047,825
1657302809535,-2048,2045,769
1657302809575,-1855,1317,374
1657302809615,-1433,916,-6
1657302809655,-1478,655,-19
1657302809695,-1093,230,-195
1657302809735,-726,-98,-291
1657302809775,-574,-294,-312
1657302809815,-831,53,-454
1657302809855,-1308,310,-337
1657302809895,-2048,1269,45
1657302809935,-2048,1882,459
1657302809975,-1596,1676,518
1657302810015,-893,1361,483
1657302810055,-325,789,529
1657302810095,133,591,415
1657302810135,466,422,188
1657302810175,802,322,94
1657302810215,815,588,-2
1657302810255,374,1102,92
1657302810295,-2048,2047,293
1657302810335,-2048,1162,411
1657302810375,-1442,530,11
1657302810415,-1132,521,-372
1657302810455,-793,149,-351
1657302810495,-583,-50,-217
1657302810535,-573,-196,-23
1657302810575,-593,-455,68
1657302810615,-1114,34,-114
1657302810655,-2048,337,26
1657302810695,-2048,1176,217
1657302810735,-2048,1539,109
1657302810775,-1382,1115,64
1657302810815,-820,753,104
1657302810855,-143,419,160
1657302810895,288,162,194
1657302810935,578,34,137
1657302810975,700,178,124
1657302811015,724,310,143
1657302811055,731,876,93
1657302811095,-2048,2047,332
1657302811135,-2048,1133,827
1657302811175,-1709,175,177
1657302811215,-1146,323,-402
1657302811255,-759,129,-522
1657302811295,-518,-33,-364
1657302811335,-494,-250,-115
1657302811375,-624,-346,-39
1657302811415,-754,-335,-107
1657302811455,-2048,186,55
1657302811495,-2048,1068,328
1657302811535,-2048,1130,206
1657302811575,-1435,1098,15
1657302811615,-684,633,84
1657302811655,-171,306,194
1657302811695,152,95,243
1657302811735,317,161,256
1657302811775,497,324,211
1657302811815,564,512,117
1657302811855,-102,915,-56
1657302811895,-2048,2047,-55
1657302811935,-2048,789,287
1657302811975,-1319,221,-131
1657302812015,-742,131,-483
1657302812055,-433,100,-464
1657302812095,-366,-101,-182
1657302812135,-607,-255,66
1657302812175,-761,-302,41
1657302812215,-1288,-22,-91
1657302812255,-2048,736,129
1657302812295,-2048,921,229
1657302812335,-1945,943,171
1657302812375,-1289,1036,138
1657302812415,-562,912,-192
1657302812455,192,644,-271
1657302812495,360,260,161
1657302812535,434,0,433
1657302812575,909,-67,354
1657302812615,1276,120,388
1657302812655,-39,1868,507
1657302812695,-2048,2047,-74
1657302812735,-2048,1633,-492
1657302812775,-1494,637,-627
1657302812815,-1032,238,-631
1657302812855,-952,86,-595
1657302812895,-672,-1,-523
1657302812935,-363,-327,-266
1657302812975,-252,-340,-242
1657302813015,-1240,77,-367
1657302813055,-2048,1420,-305
1657302813095,-2048,1562,-39
1657302813135,-1685,1373,45
1657302813175,-954,1271,-67
1657302813215,-286,764,-75
1657302813255,183,354,223
1657302813295,283,234,441
1657302813335,626,209,299
1657302813375,752,291,297
1657302813415,810,669,343
1657302813455,-1384,2047,432
1657302813495,-2048,2047,-515
1657302813535,-1568,1307,-797
1657302813575,-1179,840,-621
1657302813615,-1061,476,-384
1657302813655,-885,206,-220
1657302813695,-604,10,-262
1657302813735,-428,-121,-236
1657302813775,-446,-219,-162
1657302813815,-873,-56,-150
1657302813855,-1946,-36,-75
1657302813895,-2048,1192,290
1657302813935,-2048,1673,225
1657302813975,-1643,1497,261
1657302814015,-982,1148,233
1657302814055,-335,688,391
1657302814095,120,297,499
1657302814135,477,323,396
1657302814175,809,370,194
1657302814215,1028,273,215
1657302814255,1157,821,241
1657302814295,-2017,2047,573
1657302814335,-2048,2047,430
1657302814375,-2048,633,130
1657302814415,-1307,356,-196
1657302814455,-908,6,-237
1657302814495,-584,-216,-273
1657302814535,-701,-207,-241
1657302814575,-381,-322,-516
1657302814615,-840,40,-667
1657302814655,-2048,407,-228
1657302814695,-2048,1132,-171
1657302814735,-2048,1434,26
1657302814775,-1668,1278,45
1657302814815,-966,1075,5
1657302814855,-376,728,223
1657302814895,185,562,296
1657302814935,431,638,217
1657302814975,825,324,144
1657302815015,993,282,94
1657302815055,517,1108,-68
1657302815095,-2048,2047,325
1657302815135,-2048,1153,479
1657302815175,-1596,135,165
1657302815215,-1167,133,-149
1657302815255,-904,-27,-85
1657302815295,-593,-232,-26
1657302815335,-396,-353,-2
1657302815375,-448,-448,-30
1657302815415,-1891,-152,-93
1657302815455,-2048,546,119
1657302815495,-2048,931,197
1657302815535,-2048,1293,101
1657302815575,-1470,1237,1
1657302815615,-643,880,73
1657302815655,49,396,336
1657302815695,458,129,459
1657302815735,752,128,339
1657302815775,1134,202,133
1657302815815,1096,802,-18
1657302815855,-265,1630,423
1657302815895,-2048,2047,708
1657302815935,-2048,1259,395
1657302815975,-1333,582,-147
1657302816015,-934,225,-184
1657302816055,-928,-226,102
1657302816095,-843,-379,53
1657302816135,-636,-426,-98
1657302816175,-862,-312,-107
1657302816215,-1235,-196,-126
1657302816255,-2048,439,150
1657302816295,-2048,1289,433
1657302816335,-2048,1213,971
1657302816375,-1576,1491,619
1657302816415,-659,1287,305
1657302816455,134,846,267
1657302816495,599,440,228
1657302816535,818,343,97
1657302816575,1050,454,-61
1657302816615,770,391,148
1657302816655,481,1193,286
1657302816695,-2048,2047,793
1657302816735,-2048,1782,604
1657302816775,-2030,567,212
1657302816815,-1128,115,-108
1657302816855,-730,-251,-166
1657302816895,-586,-387,-273
1657302816935,-725,-220,-221
1657302816975,-1062,-147,-65
1657302817015,-1523,131,-7
1657302817055,-2048,437,161
1657302817095,-2048,997,400
1657302817135,-2048,1351,396
1657302817175,-1656,1487,107
1657302817215,-737,1061,34
1657302817255,12,565,199
1657302817295,461,258,330
1657302817335,657,347,284
1657302817375,822,158,219
1657302817415,796,362,258
1657302817455,848,1019,19
1657302817495,-2048,2047,359
1657302817535,-2048,2047,132
1657302817575,-2037,733,125
1657302817615,-1288,391,-199
1657302817655,-879,116,-294
1657302817695,-741,-90,-243
1657302817735,-506,-390,-196
1657302817775,-430,-547,-88
1657302817815,-1043,-97,-87
1657302817855,-2048,494,-133
1657302817895,-2048,1065,18
1657302817935,-2048,1273,128
1657302817975,-1798,1368,-101
1657302818015,-992,998,20
1657302818055,-269,604,267
1657302818095,316,218,339
1657302818135,579,198,289
1657302818175,768,280,260
1657302818215,892,414,202
1657302818255,856,894,28
1657302818295,-2048,2047,113
1657302818335,-2048,2047,187
1657302818375,-2048,623,373
1657302818415,-1395,174,-110
1657302818455,-931,28,-316
1657302818495,-689,1,-365
1657302818535,-520,-57,-483
1657302818575,-325,-128,-409
1657302818615,-913,-115,-197
1657302818655,-2048,128,172
1657302818695,-2048,881,103
1657302818735,-2048,1318,-93
1657302818775,-1784,1479,-199
1657302818815,-749,1399,-364
1657302818855,48,737,-70
1657302818895,462,476,71
1657302818935,582,131,127
1657302818975,618,27,185
1657302819015,634,428,137
1657302819055,1017,427,-144
1657302819095,-1639,2047,-112
1657302819135,-2048,2047,67
1657302819175,-2048,508,286
1657302819215,-896,327,-268
1657302819255,-633,199,-363
1657302819295,-1053,177,-85
1657302819335,-1128,-80,134
1657302819375,-647,-342,-35
1657302819415,-398,-439,-120
1657302819455,-1038,-397,-207
1657302819495,-2048,1134,20
1657302819535,-2048,1343,-204
1657302819575,-1959,1300,-117
1657302819615,-1147,1041,6
1657302819655,-461,621,93
1657302819695,129,398,260
1657302819735,404,204,253
1657302819775,630,155,201
1657302819815,634,267,127
1657302819855,803,430,-42
1657302819895,-992,1775,-9
1657302819935,-2048,2047,90
1657302819975,-2048,782,97
1657302820015,-1040,265,-285
1657302820055,-872,159,-331
1657302820095,-843,40,-167
1657302820135,-771,-98,-108
1657302820175,-726,-170,-158
1657302820215,-729,-134,-253
1657302820255,-1318,64,-229
1657302820295,-2048,624,-103
1657302820335,-2048,1171,-194
1657302820375,-2048,1391,-123
1657302820415,-1559,1177,0
1657302820455,-770,832,162
1657302820495,-157,491,298
1657302820535,320,297,325
1657302820575,543,333,284
1657302820615,653,321,217
1657302820655,795,609,156
1657302820695,639,1152,48
1657302820735,-2048,2047,477
1657302820775,-2048,1960,256
1657302820815,-1979,1070,40
1657302820855,-1424,552,-8
1657302820895,-1101,169,-147
1657302820935,-1212,165,-238
1657302820975,-940,45,-265
1657302821015,-711,-309,-76
1657302821055,-691,-208,-147
1657302821095,-1804,539,-124
1657302821135,-2048,1352,42
1657302821175,-2048,1799,-73
1657302821215,-1658,1502,261
1657302821255,-973,1096,287
1657302821295,-334,718,298
1657302821335,155,412,273
1657302821375,483,157,256
1657302821415,792,153,177
1657302821455,964,428,196
1657302821495,1135,834,185
1657302821535,-1042,2047,461
1657302821575,-2048,2047,332
1657302821615,-2048,1036,238
1657302821655,-1450,449,-92
1657302821695,-956,263,-324
1657302821735,-711,-62,-303
1657302821775,-607,-246,-110
1657302821815,-654,-361,-32
1657302821855,-793,-30,-226
1657302821895,-1642,312,-224
1657302821935,-2048,1061,182
1657302821975,-2048,1617,106
1657302822015,-1937,1584,134
1657302822055,-1186,1402,118
1657302822095,-319,817,151
1657302822135,231,386,290
1657302822175,501,136,276
1657302822215,698,203,220
1657302822255,827,233,159
1657302822295,988,615,165
1657302822335,-46,1512,278
1657302822375,-2048,2047,1078
1657302822415,-2048,1576,610
1657302822455,-1528,667,95
1657302822495,-1081,360,-59
1657302822535,-852,53,3
1657302822575,-631,-208,1
1657302822615,-453,-345,-98
1657302822655,-572,-289,-137
1657302822695,-1700,188,-71
1657302822735,-2048,752,244
1657302822775,-2048,1604,206
1657302822815,-1959,1586,256
1657302822855,-1326,1406,111
1657302822895,-637,1040,147
1657302822935,2,756,212
1657302822975,436,534,284
1657302823015,770,422,310
1657302823055,1026,163,275
1657302823095,1276,507,165
1657302823135,-570,1705,8
1657302823175,-2048,2047,36
1657302823215,-2048,1149,184
1657302823255,-1337,416,-298
1657302823295,-970,172,-345
1657302823335,-710,-34,-300
1657302823375,-589,-253,-174
1657302823415,-602,-397,-95
1657302823455,-1046,-28,-145
1657302823495,-1779,277,-154
1657302823535,-2048,904,-126
1657302823575,-2048,1470,-182
1657302823615,-2048,1426,18
1657302823655,-1284,1247,-85
1657302823695,-443,921,12
1657302823735,91,564,177
1657302823775,389,302,307
1657302823815,489,291,336
1657302823855,603,434,98
1657302823895,224,163,-309
1657302823935,-2048,2021,-275
1657302823975,-2048,568,-62
1657302824015,-1490,-33,-241
1657302824055,-1152,217,-469
1657302824095,-712,199,-557
1657302824135,-399,29,-382
1657302824175,-373,-209,-160
1657302824215,-637,-284,-110
1657302824255,-1150,8,-207
1657302824295,-1451,-81,-308
1657302824335,-2048,353,-228
1657302824375,-2048,553,-444
1657302824415,-1949,624,-439
1657302824455,-1375,677,-253
1657302824495,-566,467,-167
1657302824535,-8,284,2
1657302824575,293,139,46
1657302824615,527,142,71
1657302824655,727,217,81
1657302824695,956,496,-84
1657302824735,-2048,2047,-118
1657302824775,-2048,1604,-46
1657302824815,-1877,291,124
1657302824855,-1294,197,-173
1657302824895,-775,-32,-303
1657302824935,-518,-172,-181
1657302824975,-454,-142,-58
1657302825015,-490,-336,-45
1657302825055,-1353,233,-321
1657302825095,-2048,218,-406
1657302825135,-2048,647,-555
1657302825175,-2033,646,-570
1657302825215,-1179,673,-580
1657302825255,-452,547,-646
1657302825295,-248,499,-272
1657302825335,190,295,-21
1657302825375,420,135,85
1657302825415,299,329,-29
1657302825455,-355,1066,-825
1657302825495,-872,1157,-1209
1657302825535,-1033,916,-1106
1657302825575,-1056,605,-1053
1657302825615,-777,319,-965
1657302825655,-712,171,-812
1657302825695,-630,53,-566
1657302825735,-469,-139,-289
1657302825775,-506,-195,-130
1657302825815,-617,-155,-126
1657302825855,-777,-176,-258
1657302825895,-1639,296,-680
1657302825935,-2048,1353,-1372
1657302825975,-2048,1435,-1188
1657302826015,-989,872,-858
1657302826055,-511,514,-549
1657302826095,-130,374,-252
1657302826135,123,340,-93
1657302826175,414,287,19
1657302826215,590,131,55
1657302826255,419,379,-106
1657302826295,-349,990,-548
1657302826335,-2048,1856,-1004
