timestamp,accel_X,accel_Y,accel_Z
1657304295255,-902,-419,-262
1657304295295,-902,-437,-271
1657304295335,-907,-444,-283
1657304295375,-889,-462,-288
1657304295415,-873,-428,-279
1657304295455,-871,-419,-272
1657304295495,-867,-432,-292
1657304295535,-870,-373,-232
1657304295575,-895,-366,-205
1657304295615,-937,-382,-188
1657304295655,-991,-390,-192
1657304295695,-984,-381,-204
1657304295735,-995,-402,-224
1657304295775,-1034,-529,-111
1657304295815,-956,-465,-160
1657304295855,-930,-375,-217
1657304295895,-999,-433,-161
1657304295935,-924,-380,-177
1657304295975,-946,-388,-64
1657304296015,-921,-397,-27
1657304296055,-920,-366,-77
1657304296095,-920,-348,-36
1657304296135,-923,-296,-65
1657304296175,-951,-310,-36
1657304296215,-995,-301,-50
1657304296255,-1042,-312,-56
1657304296295,-1050,-311,-50
1657304296335,-990,-309,-38
1657304296375,-1008,-315,-16
1657304296415,-965,-315,-26
1657304296455,-978,-340,10
1657304296495,-979,-352,20
1657304296535,-968,-356,9
1657304296575,-955,-353,17
1657304296615,-991,-340,5
1657304296655,-955,-321,6
1657304296695,-1006,-336,4
1657304296735,-1011,-375,41
1657304296775,-982,-311,-38
1657304296815,-927,-278,-23
1657304296855,-990,-313,15
1657304296895,-1013,-346,10
1657304296935,-998,-371,-11
1657304296975,-965,-356,-24
1657304297015,-960,-340,-48
1657304297055,-977,-314,-44
1657304297095,-1066,-345,-64
1657304297135,-1299,-367,-140
1657304297175,-1257,-134,-60
1657304297215,-1132,-124,-239
1657304297255,-933,-44,-77
1657304297295,-1226,176,37
1657304297335,-967,107,44
1657304297375,-1054,105,114
1657304297415,-853,203,21
1657304297455,-813,103,-143
1657304297495,-834,138,-445
1657304297535,-772,258,-228
1657304297575,-495,72,-464
1657304297615,-788,-282,-686
1657304297655,-748,-216,-698
1657304297695,-735,-200,-707
1657304297735,-817,-264,-757
1657304297775,-952,-261,-864
1657304297815,-1129,-234,-916
1657304297855,-673,-152,-606
1657304297895,-688,164,-446
1657304297935,-618,252,-495
1657304297975,-712,253,-451
1657304298015,-783,175,-622
1657304298055,-916,2,-1164
1657304298095,-769,113,-735
1657304298135,-519,363,-565
1657304298175,-594,239,-567
1657304298215,-778,203,-482
1657304298255,-902,129,-362
1657304298295,-1028,145,-470
1657304298335,-936,127,-337
1657304298375,-889,112,-450
1657304298415,-957,49,-404
1657304298455,-1004,12,-405
1657304298495,-1020,31,-451
1657304298535,-1038,33,-377
1657304298575,-1073,7,-364
1657304298615,-958,21,-315
1657304298655,-962,31,-206
1657304298695,-1012,26,-38
1657304298735,-1061,-2,9
1657304298775,-1032,11,30
1657304298815,-1041,18,23
1657304298855,-1082,-26,-43
1657304298895,-1058,-5,-117
1657304298935,-1033,-45,-108
1657304298975,-1007,-7,-147
1657304299015,-998,-26,-115
1657304299055,-973,-46,-65
1657304299095,-949,-83,-66
1657304299135,-1072,-120,-53
1657304299175,-1111,-141,0
1657304299215,-1074,-189,-24
1657304299255,-1051,-162,-70
1657304299295,-1027,-165,-109
1657304299335,-1014,-156,-111
1657304299375,-1025,-170,-89
1657304299415,-1040,-128,-51
1657304299455,-985,-148,-106
1657304299495,-1001,-154,-86
1657304299535,-1078,-189,-59
1657304299575,-1045,-166,-64
1657304299615,-1359,-193,-94
1657304299655,-1375,37,90
1657304299695,-1052,-94,103
1657304299735,-860,364,211
1657304299775,-842,260,110
1657304299815,-775,153,-68
1657304299855,-732,96,-224
1657304299895,-693,94,-306
1657304299935,-567,41,-252
1657304299975,-544,-3,-395
1657304300015,-747,-223,-302
1657304300055,-853,-318,-358
1657304300095,-1211,-456,-292
1657304300135,-1162,-208,-167
1657304300175,-933,-113,-56
1657304300215,-886,-125,7
1657304300255,-865,-172,205
1657304300295,-1040,-427,390
1657304300335,-1016,-427,548
1657304300375,-943,-366,606
1657304300415,-785,-471,569
1657304300455,-801,-568,477
1657304300495,-713,-572,501
1657304300535,-810,-600,524
1657304300575,-743,-610,480
1657304300615,-671,-624,474
1657304300655,-727,-650,503
1657304300695,-700,-639,506
1657304300735,-762,-703,530
1657304300775,-766,-673,515
1657304300815,-734,-692,497
1657304300855,-709,-654,444
1657304300895,-675,-647,441
1657304300935,-697,-684,434
1657304300975,-682,-678,461
1657304301015,-644,-663,466
1657304301055,-612,-661,458
1657304301095,-628,-656,486
1657304301135,-625,-673,464
1657304301175,-608,-665,457
1657304301215,-601,-658,469
1657304301255,-621,-667,474
1657304301295,-634,-642,494
1657304301335,-654,-664,482
1657304301375,-668,-664,471
1657304301415,-677,-647,465
1657304301455,-697,-627,484
1657304301495,-715,-588,510
1657304301535,-927,-679,594
1657304301575,-2000,-1093,715
1657304301615,-1574,-675,891
1657304301655,-1385,-79,831
1657304301695,-1280,-597,216
1657304301735,-965,-353,47
1657304301775,-999,-241,106
1657304301815,-789,-61,-22
1657304301855,-592,60,-253
1657304301895,-636,320,-75
1657304301935,-509,256,-195
1657304301975,-463,259,-151
1657304302015,-453,371,-182
1657304302055,-492,401,-287
1657304302095,-604,525,-54
1657304302135,-973,331,10
1657304302175,-528,618,-314
1657304302215,-657,683,-135
1657304302255,-934,634,111
1657304302295,-683,612,-314
1657304302335,-686,487,-277
1657304302375,-818,496,-166
1657304302415,-855,817,-61
1657304302455,-906,882,-150
1657304302495,-842,918,-137
1657304302535,-732,1069,-190
1657304302575,-432,842,-397
1657304302615,-528,732,-294
1657304302655,-773,825,-226
1657304302695,-448,589,-470
1657304302735,-390,708,-317
1657304302775,-302,758,-170
1657304302815,-230,750,-30
1657304302855,-377,717,-139
1657304302895,-453,882,-80
1657304302935,-636,945,-275
1657304302975,-764,1048,-132
1657304303015,-899,1195,-124
1657304303055,-936,1040,-300
1657304303095,-776,851,-306
1657304303135,-568,698,-245
1657304303175,-533,570,-193
1657304303215,-426,489,-159
1657304303255,-355,550,-144
1657304303295,-423,631,-123
1657304303335,-584,748,-136
1657304303375,-673,957,-200
1657304303415,-829,1051,-450
1657304303455,-798,996,-214
1657304303495,-607,843,-295
1657304303535,-4,854,-297
1657304303575,-493,716,-317
1657304303615,-689,682,-130
1657304303655,-610,613,-153
1657304303695,-513,516,-352
1657304303735,-476,462,-412
1657304303775,-442,377,-395
1657304303815,-594,410,-325
1657304303855,-616,271,-209
1657304303895,-689,147,-176
1657304303935,-1012,136,-58
1657304303975,-1236,236,-36
1657304304015,-1848,348,4
1657304304055,-2048,376,115
1657304304095,-1743,411,-44
1657304304135,-1240,442,-129
1657304304175,-856,385,-121
1657304304215,-450,230,-100
1657304304255,-263,96,-10
1657304304295,-74,144,-21
1657304304335,-335,395,-96
1657304304375,-1258,639,-376
1657304304415,-2048,154,-107
1657304304455,-1667,61,-154
1657304304495,-938,0,-336
1657304304535,-381,-58,-281
1657304304575,-210,-195,-398
1657304304615,-233,-189,-234
1657304304655,-787,-377,-569
1657304304695,-1000,-575,-479
1657304304735,-907,-194,-944
1657304304775,-1244,-646,-1201
1657304304815,-1306,-492,-1156
1657304304855,-1053,-309,-903
1657304304895,-645,-302,-764
1657304304935,-474,-161,-521
1657304304975,-427,44,-217
1657304305015,-564,68,-90
1657304305055,-556,69,-169
1657304305095,-830,-120,-313
1657304305135,-1258,133,-600
1657304305175,-1600,-212,-1002
1657304305215,-1736,-672,-846
1657304305255,-1167,-441,-635
1657304305295,-649,-366,-416
1657304305335,-343,-263,-332
1657304305375,-282,-230,-280
1657304305415,-430,-342,-244
1657304305455,-413,-498,-187
1657304305495,-538,-723,-186
1657304305535,-1197,-1104,-439
1657304305575,-1347,-777,-550
1657304305615,-1361,-423,-483
1657304305655,-1291,-6,-447
1657304305695,-1110,195,-356
1657304305735,-913,315,-265
1657304305775,-684,262,-181
1657304305815,-652,123,-185
1657304305855,-1087,105,-212
1657304305895,-2048,-388,-426
1657304305935,-1819,-666,-566
1657304305975,-1278,-435,-309
1657304306015,-827,-603,-203
1657304306055,-389,-498,-226
1657304306095,-250,-375,-152
1657304306135,-278,-388,-131
1657304306175,-319,-470,-89
1657304306215,-429,-750,-65
1657304306255,-1061,-1138,-201
1657304306295,-1388,-977,-347
1657304306335,-1466,-654,-347
1657304306375,-1393,-367,-310
1657304306415,-1105,-74,-318
1657304306455,-971,144,-328
1657304306495,-840,272,-341
1657304306535,-733,249,-345
1657304306575,-914,150,-219
1657304306615,-1603,106,-171
1657304306655,-2048,-599,-293
1657304306695,-1860,-812,-230
1657304306735,-1170,-719,-106
1657304306775,-639,-778,-117
1657304306815,-236,-633,-133
1657304306855,-99,-553,-35
1657304306895,-158,-553,58
1657304306935,-215,-747,37
1657304306975,-426,-926,-89
1657304307015,-1192,-1046,-288
1657304307055,-1804,-1120,-377
1657304307095,-1651,-571,-344
1657304307135,-1251,-76,-256
1657304307175,-1016,189,-241
1657304307215,-962,400,-316
1657304307255,-717,411,-429
1657304307295,-781,264,-290
1657304307335,-1175,162,-134
1657304307375,-2048,-467,-25
1657304307415,-2048,-1144,-14
1657304307455,-1465,-891,161
1657304307495,-773,-677,148
1657304307535,-300,-614,58
1657304307575,-172,-501,-33
1657304307615,-65,-547,-87
1657304307655,34,-617,-139
1657304307695,189,-950,-42
1657304307735,-928,-1359,-145
1657304307775,-1933,-1281,-172
1657304307815,-1732,-782,-235
1657304307855,-1425,-278,-229
1657304307895,-1194,10,-299
1657304307935,-1138,222,-394
1657304307975,-909,385,-400
1657304308015,-822,293,-356
1657304308055,-1363,64,-252
1657304308095,-1967,-26,-358
1657304308135,-2048,-472,-565
1657304308175,-1754,-863,-543
1657304308215,-1103,-699,-186
1657304308255,-560,-570,21
1657304308295,-288,-453,74
1657304308335,-220,-346,201
1657304308375,-221,-423,186
1657304308415,-238,-501,37
1657304308455,-636,-746,-289
1657304308495,-1455,-753,-626
1657304308535,-1726,-538,-519
1657304308575,-1468,-192,-355
1657304308615,-996,119,-377
1657304308655,-988,66,-404
1657304308695,-817,228,-354
1657304308735,-560,404,-302
1657304308775,-844,452,-198
1657304308815,-2048,155,58
1657304308855,-2048,-946,-10
1657304308895,-1600,-918,149
1657304308935,-468,-478,222
1657304308975,-123,-177,104
1657304309015,28,-139,18
1657304309055,6,-246,-43
1657304309095,-22,-312,-93
1657304309135,106,-523,-101
1657304309175,-2018,-1672,-24
1657304309215,-2048,-1223,399
1657304309255,-1468,-276,210
1657304309295,-840,9,-206
1657304309335,-573,363,-176
1657304309375,-512,509,-87
1657304309415,-476,426,-108
1657304309455,-695,375,-52
1657304309495,-1441,312,98
1657304309535,-2048,9,442
1657304309575,-2048,-682,562
1657304309615,-943,-409,388
1657304309655,-514,-232,198
1657304309695,-209,-84,49
1657304309735,-136,-158,-15
1657304309775,-59,-247,-27
1657304309815,-49,-424,-13
1657304309855,-691,-1111,93
1657304309895,-2048,-1050,306
1657304309935,-2048,-331,535
1657304309975,-1238,-9,73
1657304310015,-924,257,-87
1657304310055,-710,458,-39
1657304310095,-487,407,-201
1657304310135,-349,275,-347
1657304310175,-453,366,-150
1657304310215,-1588,492,190
1657304310255,-2048,-17,585
1657304310295,-2048,-495,783
1657304310335,-770,-466,475
1657304310375,-262,-301,152
1657304310415,-85,-109,0
1657304310455,-27,-104,-67
1657304310495,-33,-179,-44
1657304310535,-287,-247,3
1657304310575,-1599,-1143,160
1657304310615,-2048,-796,498
1657304310655,-1739,-270,459
1657304310695,-1033,-60,-13
1657304310735,-701,211,-164
1657304310775,-538,404,-136
1657304310815,-508,354,-119
1657304310855,-473,384,-116
1657304310895,-774,422,1
1657304310935,-2048,482,451
1657304310975,-2048,-331,697
1657304311015,-1616,-388,619
1657304311055,-557,-314,332
1657304311095,-306,-282,110
1657304311135,-268,-249,33
1657304311175,-130,-298,-42
1657304311215,-110,-359,-52
1657304311255,-291,-603,-11
1657304311295,-1981,-877,205
1657304311335,-2048,-387,639
1657304311375,-1705,-41,319
1657304311415,-972,26,-189
1657304311455,-675,145,-338
1657304311495,-887,239,-205
1657304311535,-899,327,-169
1657304311575,-1006,493,-168
1657304311615,-1786,1012,293
1657304311655,-2048,732,586
1657304311695,-2048,429,729
1657304311735,-1387,-5,91
1657304311775,-530,-2,173
1657304311815,-189,-131,-262
1657304311855,-365,-114,-269
1657304311895,-165,-171,55
1657304311935,-499,131,221
1657304311975,27,293,-724
1657304312015,-738,1025,-567
1657304312055,-1187,783,-454
1657304312095,-1083,609,-559
1657304312135,-632,420,-657
1657304312175,-161,212,76
1657304312215,-74,75,43
1657304312255,-241,54,-19
1657304312295,-383,267,-331
1657304312335,-678,892,-659
1657304312375,-855,1198,-778
1657304312415,-1548,1112,-348
1657304312455,-1367,704,183
1657304312495,-1108,355,237
1657304312535,-981,148,240
1657304312575,-671,-43,88
1657304312615,-613,-316,-85
1657304312655,-1003,-367,-40
1657304312695,-1015,-398,295
1657304312735,-1957,-195,828
1657304312775,-1822,-41,1197
1657304312815,-1371,197,561
1657304312855,-1211,354,58
1657304312895,-884,410,-33
1657304312935,-615,427,-60
1657304312975,-484,452,-66
1657304313015,-375,472,-99
1657304313055,-862,868,167
1657304313095,-2048,658,874
1657304313135,-2048,10,1149
1657304313175,-1218,-162,800
1657304313215,-494,-197,233
1657304313255,-316,-105,-22
1657304313295,-263,-89,-49
1657304313335,-273,-245,89
1657304313375,-263,-309,89
1657304313415,-472,-388,12
1657304313455,-2048,-511,455
1657304313495,-2048,-265,1375
1657304313535,-1520,-36,475
1657304313575,-1006,247,-69
1657304313615,-731,379,41
1657304313655,-455,348,26
1657304313695,-302,427,-9
1657304313735,-326,453,76
1657304313775,-590,529,-20
1657304313815,-2048,381,271
1657304313855,-2048,112,817
1657304313895,-1400,-113,546
1657304313935,-478,-93,201
1657304313975,-220,-8,82
1657304314015,-232,-47,149
1657304314055,-270,-151,170
1657304314095,-289,-219,136
1657304314135,-493,-457,76
1657304314175,-2048,-523,311
1657304314215,-2048,-215,1094
1657304314255,-1639,-37,543
1657304314295,-1031,135,-16
1657304314335,-741,352,-68
1657304314375,-633,343,58
1657304314415,-434,418,90
1657304314455,-195,314,9
1657304314495,-188,414,-204
1657304314535,-2048,1083,360
1657304314575,-2048,429,754
1657304314615,-2048,92,624
1657304314655,-815,-124,339
1657304314695,-374,-361,352
1657304314735,147,-313,-7
1657304314775,349,-186,91
1657304314815,247,-381,195
1657304314855,327,-361,-123
1657304314895,-309,-636,-226
1657304314935,-2048,191,1876
1657304314975,-2048,1184,611
1657304315015,-1278,596,-20
1657304315055,-903,580,-249
1657304315095,-697,484,-122
1657304315135,-209,674,-242
1657304315175,174,459,-340
1657304315215,300,368,-365
1657304315255,-564,1239,-555
1657304315295,-2048,2047,1650
1657304315335,-2048,2047,1958
1657304315375,-925,351,883
1657304315415,-289,-127,320
1657304315455,51,-332,-38
1657304315495,92,-255,9
1657304315535,218,-141,316
1657304315575,136,-408,315
1657304315615,-329,-628,-233
1657304315655,-1583,1337,883
1657304315695,-1025,2047,1114
1657304315735,-513,1968,313
1657304315775,-816,834,-229
1657304315815,-702,268,-310
1657304315855,-372,681,-175
1657304315895,397,1259,-103
1657304315935,232,744,-466
1657304315975,-388,564,-446
1657304316015,-1320,1815,-346
1657304316055,-2048,2047,1092
1657304316095,-945,2047,1062
1657304316135,-414,690,800
1657304316175,-383,-75,558
1657304316215,-55,-327,274
1657304316255,172,-382,296
1657304316295,181,-451,258
1657304316335,85,-503,38
1657304316375,-1019,227,402
1657304316415,-2048,1947,2046
1657304316455,-1776,1538,592
1657304316495,-963,956,16
1657304316535,-898,855,-93
1657304316575,-725,800,-77
1657304316615,-212,784,-157
1657304316655,40,655,-360
1657304316695,-67,835,-282
1657304316735,-1530,1873,377
1657304316775,-2048,1582,1773
1657304316815,-1084,650,1170
1657304316855,-550,94,491
1657304316895,-273,-55,365
1657304316935,-48,-136,230
1657304316975,52,-212,169
1657304317015,-39,-197,153
1657304317055,-271,-128,-21
1657304317095,-1697,416,327
1657304317135,-2048,1006,1508
1657304317175,-1688,885,1216
1657304317215,-823,311,50
1657304317255,-692,368,-95
1657304317295,-423,391,-60
1657304317335,-258,458,52
1657304317375,65,459,-83
1657304317415,-200,344,-342
1657304317455,-1732,908,-246
1657304317495,-2048,1624,1109
1657304317535,-2048,880,1468
1657304317575,-828,117,486
1657304317615,-296,109,213
1657304317655,-49,-7,86
1657304317695,32,-170,37
1657304317735,86,-263,73
1657304317775,-9,-341,95
1657304317815,-445,-360,155
1657304317855,-2048,295,1048
1657304317895,-2048,917,1624
1657304317935,-1319,318,-283
1657304317975,-795,16,-1107
1657304318015,-514,66,-368
1657304318055,-230,189,-66
1657304318095,-208,78,-138
1657304318135,-129,281,-2
1657304318175,-868,585,87
1657304318215,-2048,1042,300
1657304318255,-2048,323,347
1657304318295,-1602,-135,53
1657304318335,-988,21,261
1657304318375,-561,134,248
1657304318415,-243,43,55
1657304318455,-116,-31,13
1657304318495,-121,-134,53
1657304318535,57,-234,-116
1657304318575,-233,-330,-227
1657304318615,-2048,-214,480
1657304318655,-2048,110,1233
1657304318695,-1694,15,328
1657304318735,-880,100,-195
1657304318775,-712,307,17
1657304318815,-502,432,-13
1657304318855,-202,432,-90
1657304318895,-44,450,-59
1657304318935,-308,774,-101
1657304318975,-2048,1046,588
1657304319015,-2048,691,1136
1657304319055,-1534,144,1066
1657304319095,-600,-118,342
1657304319135,-261,-37,68
1657304319175,-206,-72,-14
1657304319215,-185,-97,102
1657304319255,-301,-77,218
1657304319295,-322,-202,127
1657304319335,-1566,-267,238
1657304319375,-2048,236,1356
1657304319415,-1630,428,801
1657304319455,-987,247,-10
1657304319495,-764,426,-120
1657304319535,-510,370,-107
1657304319575,-230,468,-156
1657304319615,-208,421,-105
1657304319655,-93,413,-173
1657304319695,-141,726,-204
1657304319735,-2048,770,904
1657304319775,-2048,353,1798
1657304319815,-2048,-135,1251
1657304319855,-644,-300,252
1657304319895,-283,-188,48
1657304319935,-74,-111,39
1657304319975,-87,-132,73
1657304320015,-50,-222,18
1657304320055,245,-490,-67
1657304320095,-1233,-676,147
1657304320135,-2048,-244,1743
1657304320175,-2048,-15,1052
1657304320215,-1041,24,-137
1657304320255,-606,273,-207
1657304320295,-470,397,-46
1657304320335,-234,481,0
1657304320375,-138,428,-107
1657304320415,-384,590,-115
1657304320455,-2026,1157,519
1657304320495,-2048,688,1277
1657304320535,-1828,-142,1112
1657304320575,-717,-243,416
1657304320615,-228,-233,115
1657304320655,-121,-155,-88
1657304320695,-87,-194,-85
1657304320735,-62,-210,-6
1657304320775,-136,-246,0
1657304320815,-1553,-249,502
1657304320855,-2048,-869,1264
1657304320895,-1983,-507,1166
1657304320935,-825,74,311
1657304320975,-735,395,-187
1657304321015,-566,571,-47
1657304321055,-350,652,17
1657304321095,-122,614,-80
1657304321135,-347,579,-90
1657304321175,-2020,987,601
1657304321215,-2048,670,1345
1657304321255,-1704,93,1266
1657304321295,-638,-111,503
1657304321335,-272,-81,5
1657304321375,-216,-148,-52
1657304321415,-112,-235,-33
1657304321455,-97,-306,-49
1657304321495,-129,-371,-58
1657304321535,-1205,-427,70
1657304321575,-2048,249,953
1657304321615,-2048,271,1007
1657304321655,-1331,246,35
1657304321695,-957,259,-104
1657304321735,-561,454,-113
1657304321775,-327,547,-78
1657304321815,-126,461,-21
1657304321855,-143,462,-145
1657304321895,-1007,1180,-133
1657304321935,-2048,570,363
1657304321975,-2048,34,816
1657304322015,-1138,-196,532
1657304322055,-328,-261,232
1657304322095,-144,-195,18
1657304322135,-150,-131,-12
1657304322175,-51,-156,-22
1657304322215,-136,-172,-34
1657304322255,-748,-527,9
1657304322295,-2048,-236,601
1657304322335,-2048,80,820
1657304322375,-1302,138,30
1657304322415,-895,293,-164
1657304322455,-592,435,-144
1657304322495,-380,506,-106
1657304322535,-175,501,-55
1657304322575,-10,455,-151
1657304322615,-861,1022,5
1657304322655,-2048,717,1046
1657304322695,-2048,230,1312
1657304322735,-865,-143,506
1657304322775,-425,-131,149
1657304322815,-280,-109,17
1657304322855,-107,-154,15
1657304322895,-94,-221,28
1657304322935,19,-325,5
1657304322975,-819,-257,571
1657304323015,-2048,-153,1233
1657304323055,-1960,115,1657
1657304323095,-1277,212,659
1657304323135,-830,519,241
1657304323175,-673,589,256
1657304323215,-398,574,186
1657304323255,-117,559,33
1657304323295,13,532,-50
1657304323335,-646,1022,306
1657304323375,-2048,1115,1097
1657304323415,-2048,776,1744
1657304323455,-896,137,1072
1657304323495,-128,-11,577
1657304323535,-30,-80,253
1657304323575,-41,-132,108
1657304323615,-85,-236,104
1657304323655,-60,-215,51
1657304323695,-591,-308,162
1657304323735,-2048,274,1068
1657304323775,-2048,359,2046
1657304323815,-1185,294,1176
1657304323855,-591,383,326
1657304323895,-415,562,89
1657304323935,-240,535,15
1657304323975,-80,513,-2
1657304324015,-29,571,30
1657304324055,-37,862,-7
1657304324095,-2048,1558,1245
1657304324135,-2048,819,2046
1657304324175,-1042,-278,1468
1657304324215,-313,-348,372
1657304324255,-35,-256,-5
1657304324295,1,-172,-172
1657304324335,15,-262,-62
1657304324375,-152,-272,80
1657304324415,-500,-555,187
1657304324455,-2048,-126,1171
1657304324495,-2048,-230,2046
1657304324535,-1295,41,817
1657304324575,-969,344,121
1657304324615,-677,525,46
1657304324655,-468,477,49
1657304324695,-213,559,14
1657304324735,-13,505,-99
1657304324775,-456,931,26
1657304324815,-2048,1203,1320
1657304324855,-2048,432,2046
1657304324895,-1142,-314,1239
1657304324935,-343,-325,372
1657304324975,-62,-273,81
1657304325015,-52,-206,-32
1657304325055,-113,-217,28
1657304325095,-363,-194,138
1657304325135,-536,-300,154
1657304325175,-1980,-149,685
1657304325215,-2048,-124,1446
1657304325255,-1360,229,817
1657304325295,-1112,457,350
1657304325335,-871,571,262
1657304325375,-703,505,97
1657304325415,-309,400,-108
1657304325455,-169,325,-232
1657304325495,29,528,-143
1657304325535,-2013,903,506
1657304325575,-2048,288,1406
1657304325615,-1737,-56,981
1657304325655,-799,-129,467
1657304325695,-296,-84,222
1657304325735,-293,-30,85
1657304325775,-244,-63,116
1657304325815,-206,-150,63
1657304325855,-136,-413,-27
1657304325895,-1451,-637,207
1657304325935,-2048,-529,1169
1657304325975,-2029,-516,1482
1657304326015,-1041,4,251
1657304326055,-641,329,-115
1657304326095,-545,477,20
1657304326135,-365,583,117
1657304326175,-174,568,-33
1657304326215,-400,677,-157
1657304326255,-1976,904,293
1657304326295,-2048,472,1068
1657304326335,-1983,-362,1118
1657304326375,-689,-435,396
1657304326415,-78,-267,121
1657304326455,156,-164,-86
1657304326495,105,-149,-145
1657304326535,71,-165,-4
1657304326575,1,-303,1
1657304326615,-1640,-402,476
1657304326655,-2048,7,1500
1657304326695,-2048,-316,1476
1657304326735,-1182,83,213
1657304326775,-835,284,-210
1657304326815,-505,317,-230
1657304326855,-409,340,-124
1657304326895,-221,335,-11
1657304326935,-49,373,-51
1657304326975,-498,751,119
1657304327015,-2048,677,707
1657304327055,-2048,244,1163
1657304327095,-1371,-3,566
1657304327135,-395,-132,373
1657304327175,-252,-31,147
1657304327215,-138,-102,160
1657304327255,-67,-233,94
1657304327295,-121,-316,77
1657304327335,-656,-605,96
1657304327375,-2048,-314,897
1657304327415,-2048,-308,1610
1657304327455,-1535,-114,677
1657304327495,-893,233,59
1657304327535,-657,403,112
1657304327575,-545,350,92
1657304327615,-310,338,12
1657304327655,-142,384,-49
1657304327695,-203,578,-250
1657304327735,-1802,874,662
1657304327775,-2048,98,1891
1657304327815,-1473,-45,898
1657304327855,-443,-147,404
1657304327895,-319,-82,215
1657304327935,-251,-78,219
1657304327975,-59,-81,149
1657304328015,132,-21,6
1657304328055,580,-429,-82
1657304328095,-2034,-1076,688
1657304328135,-2048,-418,2046
1657304328175,-1649,-90,474
1657304328215,-871,-4,-87
1657304328255,-666,217,-80
1657304328295,-488,370,-124
1657304328335,-401,470,-84
1657304328375,-267,577,-125
1657304328415,-590,776,10
1657304328455,-1897,620,564
1657304328495,-2048,-148,1454
1657304328535,-1797,-379,1542
1657304328575,-698,-550,676
1657304328615,-249,-453,224
1657304328655,-132,-310,119
1657304328695,-44,-304,133
1657304328735,15,-521,156
1657304328775,-244,-585,226
1657304328815,-1109,-656,364
1657304328855,-2048,-678,1099
1657304328895,-1900,-218,1035
1657304328935,-1363,-47,514
1657304328975,-850,161,318
1657304329015,-623,282,105
1657304329055,-569,298,-18
1657304329095,-390,326,-156
1657304329135,-399,313,-121
1657304329175,-1511,420,285
1657304329215,-2048,172,1053
1657304329255,-1918,-74,1236
1657304329295,-1006,-123,703
1657304329335,-596,-225,384
1657304329375,-463,-161,147
1657304329415,-260,-193,41
1657304329455,-174,-284,55
1657304329495,-80,-417,-7
1657304329535,-712,-856,63
1657304329575,-2048,-586,763
1657304329615,-2048,-221,1247
1657304329655,-1391,-66,265
1657304329695,-1026,197,17
1657304329735,-811,313,79
1657304329775,-709,406,68
1657304329815,-447,469,117
1657304329855,-122,496,44
1657304329895,-399,598,-151
1657304329935,-2048,557,485
1657304329975,-2048,11,981
1657304330015,-1681,-258,308
1657304330055,-1063,29,59
1657304330095,-269,20,142
1657304330135,-65,-313,-203
1657304330175,-293,-616,541
1657304330215,-636,-785,719
1657304330255,-460,-828,486
1657304330295,-766,-781,233
1657304330335,-1327,-517,-234
1657304330375,-1725,-83,60
1657304330415,-1455,261,198
1657304330455,-975,477,62
1657304330495,-770,564,-118
1657304330535,-727,591,-207
1657304330575,-618,593,-341
1657304330615,-1268,471,52
1657304330655,-2048,761,175
1657304330695,-2048,278,329
1657304330735,-1493,-64,320
1657304330775,-829,-17,241
1657304330815,-425,-50,130
1657304330855,-249,-66,64
1657304330895,-165,-79,202
1657304330935,-100,-306,113
1657304330975,-479,-287,-3
1657304331015,-2048,-49,-13
1657304331055,-2048,133,708
1657304331095,-1548,273,400
1657304331135,-866,130,52
1657304331175,-685,125,135
1657304331215,-493,302,-196
1657304331255,-241,438,-377
1657304331295,-270,386,-239
1657304331335,-372,352,-332
1657304331375,-2022,846,-64
1657304331415,-2048,745,781
1657304331455,-1932,231,730
1657304331495,-718,47,509
1657304331535,-206,-16,306
1657304331575,-103,-24,149
1657304331615,-138,-15,180
1657304331655,-235,-131,194
1657304331695,-398,-233,250
1657304331735,-1309,-369,538
1657304331775,-2048,142,1039
1657304331815,-2027,421,851
1657304331855,-1243,134,220
1657304331895,-938,210,102
1657304331935,-674,373,-1
1657304331975,-407,500,-150
1657304332015,-263,467,-221
1657304332055,-180,426,-199
1657304332095,-656,749,-318
1657304332135,-2048,832,626
1657304332175,-2048,503,991
1657304332215,-1117,0,477
1657304332255,-323,50,410
1657304332295,-17,-143,64
1657304332335,-102,-42,70
1657304332375,109,-175,49
1657304332415,-132,-135,211
1657304332455,-467,-336,188
1657304332495,-2048,134,494
1657304332535,-2048,996,512
1657304332575,-1426,386,-44
1657304332615,-1004,151,-307
1657304332655,-667,190,-384
1657304332695,-397,283,-327
1657304332735,-127,342,-312
1657304332775,87,360,-363
1657304332815,-62,472,-526
1657304332855,-2048,1196,-519
1657304332895,-2048,1345,326
1657304332935,-1787,550,528
1657304332975,-706,-25,404
1657304333015,-240,-163,122
1657304333055,-128,-91,30
1657304333095,-101,-133,137
1657304333135,-129,-261,48
1657304333175,-10,-465,-78
1657304333215,-1779,-605,223
1657304333255,-2048,67,633
1657304333295,-1827,88,219
1657304333335,-919,28,-131
1657304333375,-749,279,-268
1657304333415,-500,305,-349
1657304333455,-171,264,-431
1657304333495,108,217,-509
1657304333535,80,316,-479
1657304333575,-2048,830,-76
1657304333615,-2048,733,252
1657304333655,-2048,22,438
1657304333695,-1305,-155,625
1657304333735,-490,-155,378
1657304333775,-135,-228,112
1657304333815,-168,-231,54
1657304333855,33,-260,49
1657304333895,112,-273,38
1657304333935,466,-518,135
1657304333975,-2048,-750,653
1657304334015,-2048,679,1250
1657304334055,-1606,66,-105
1657304334095,-912,18,-294
1657304334135,-585,295,-300
1657304334175,-298,445,-320
1657304334215,-254,463,-264
1657304334255,-123,419,-299
1657304334295,-126,452,-331
1657304334335,-2048,1011,-253
1657304334375,-2048,600,495
1657304334415,-2048,-129,524
1657304334455,-850,-296,419
1657304334495,-175,-193,231
1657304334535,117,-173,12
1657304334575,78,-132,70
1657304334615,25,-255,263
1657304334655,117,-325,191
1657304334695,-319,-761,335
1657304334735,-2048,159,1259
1657304334775,-2048,222,221
1657304334815,-1148,-172,-453
1657304334855,-887,146,-305
1657304334895,-541,344,-298
1657304334935,-311,410,-243
1657304334975,-262,617,-236
1657304335015,133,690,-399
1657304335055,-297,1061,-576
1657304335095,-2048,1130,1804
1657304335135,-2048,915,1669
1657304335175,-735,-264,647
1657304335215,-423,-262,195
1657304335255,-97,-120,5
1657304335295,-12,-77,88
1657304335335,-106,19,113
1657304335375,-80,-65,84
1657304335415,-247,-321,170
1657304335455,-2048,-996,830
1657304335495,-2048,110,2046
1657304335535,-1214,133,373
1657304335575,-1465,435,119
1657304335615,-1337,434,-88
1657304335655,-863,434,-336
1657304335695,-523,451,-342
1657304335735,-226,435,-470
1657304335775,-36,575,-408
1657304335815,-276,420,-580
1657304335855,-2048,-173,-86
1657304335895,-2048,-444,72
1657304335935,-1843,-765,296
1657304335975,-764,-431,361
1657304336015,-225,-152,292
1657304336055,24,-110,82
1657304336095,10,-190,42
1657304336135,-89,-225,0
1657304336175,-80,-338,58
1657304336215,-1773,-363,425
1657304336255,-2048,225,857
1657304336295,-1705,387,403
1657304336335,-1217,207,1
1657304336375,-1003,315,-190
1657304336415,-735,305,-313
1657304336455,-464,319,-329
1657304336495,-223,396,-331
1657304336535,28,396,-360
1657304336575,-571,751,-407
1657304336615,-2048,1031,521
1657304336655,-2048,596,898
1657304336695,-1229,-177,575
1657304336735,-466,-234,386
1657304336775,-99,-250,186
1657304336815,-2,-195,58
1657304336855,65,-302,78
1657304336895,-41,-297,95
1657304336935,197,-622,165
1657304336975,-2048,-615,896
1657304337015,-2048,-105,1697
1657304337055,-1403,-40,222
1657304337095,-878,156,-290
1657304337135,-648,462,-57
1657304337175,-400,716,-146
1657304337215,-246,676,-165
1657304337255,-9,444,-257
1657304337295,-565,773,-295
1657304337335,-2048,1169,777
1657304337375,-2048,702,1545
1657304337415,-1358,-58,642
1657304337455,-758,-142,298
1657304337495,-352,-111,162
1657304337535,-118,-195,170
1657304337575,-50,-371,275
1657304337615,154,-256,173
1657304337655,275,-495,14
1657304337695,-1047,-769,36
1657304337735,-2048,-99,1090
1657304337775,-2048,345,1122
1657304337815,-1409,298,226
1657304337855,-907,365,-138
1657304337895,-675,504,-184
1657304337935,-449,393,-120
1657304337975,26,71,-272
1657304338015,-131,427,-277
1657304338055,-1019,1146,-25
1657304338095,-2048,1194,869
1657304338135,-2048,752,1446
1657304338175,-918,77,687
1657304338215,-220,-9,234
1657304338255,-120,-37,78
1657304338295,-152,-101,91
1657304338335,-158,-274,129
1657304338375,-101,-436,85
1657304338415,-342,-507,194
1657304338455,-2048,6,1187
1657304338495,-2048,206,1662
1657304338535,-1364,96,618
1657304338575,-1081,245,13
1657304338615,-872,454,107
1657304338655,-503,373,87
1657304338695,-203,357,46
1657304338735,101,445,18
1657304338775,-360,657,71
1657304338815,-2048,860,443
1657304338855,-2048,1269,1391
1657304338895,-1652,619,1342
1657304338935,-621,90,643
1657304338975,-308,-59,316
1657304339015,-138,-94,204
1657304339055,-52,-187,165
1657304339095,67,-274,59
1657304339135,114,-482,47
1657304339175,-1148,-866,481
1657304339215,-2048,-107,1458
1657304339255,-2048,362,1337
1657304339295,-1341,386,202
1657304339335,-877,625,99
1657304339375,-707,650,84
1657304339415,-494,543,-95
1657304339455,-306,364,-212
1657304339495,-385,359,-177
1657304339535,-1755,663,199
1657304339575,-2048,979,768
1657304339615,-2048,287,748
1657304339655,-1030,-78,539
1657304339695,-377,-131,268
1657304339735,-201,-162,82
1657304339775,-275,-120,111
1657304339815,-312,-172,89
1657304339855,-456,-292,130
1657304339895,-1056,-166,-226
1657304339935,-2048,390,11
1657304339975,-2048,419,36
1657304340015,-1352,301,-49
1657304340055,-811,171,-254
1657304340095,-457,155,-363
1657304340135,-201,213,-319
1657304340175,-169,283,-189
1657304340215,-330,327,-156
1657304340255,-896,805,-286
1657304340295,-2048,1258,165
1657304340335,-2048,726,348
1657304340375,-1213,275,293
1657304340415,-619,73,237
1657304340455,-318,90,144
1657304340495,-144,-8,117
1657304340535,-58,-173,158
1657304340575,-136,-200,115
1657304340615,-696,-297,167
1657304340655,-2048,321,850
1657304340695,-2048,686,932
1657304340735,-1311,294,254
1657304340775,-891,271,-30
1657304340815,-659,436,-131
1657304340855,-420,420,-94
1657304340895,-229,415,-99
1657304340935,-233,549,-81
1657304340975,-754,981,-45
1657304341015,-2048,922,353
1657304341055,-2048,776,872
1657304341095,-1264,321,859
1657304341135,-677,-154,619
1657304341175,-313,124,52
1657304341215,-223,-4,196
1657304341255,-80,-111,290
1657304341295,29,-222,242
1657304341335,-456,-189,186
1657304341375,-2048,592,620
1657304341415,-2048,1181,565
1657304341455,-1253,438,21
1657304341495,-909,379,-125
1657304341535,-618,396,-292
1657304341575,-378,330,-323
1657304341615,-216,326,-271
1657304341655,-50,264,-333
1657304341695,72,339,-434
1657304341735,-1602,1720,-298
1657304341775,-2048,1563,1206
1657304341815,-1840,750,993
1657304341855,-653,-53,329
1657304341895,-230,-136,103
1657304341935,-99,-160,11
1657304341975,40,-183,56
1657304342015,8,-241,227
1657304342055,38,-334,123
1657304342095,-1251,-277,544
1657304342135,-2048,481,1568
1657304342175,-2048,454,806
1657304342215,-1104,144,-197
1657304342255,-889,342,-236
1657304342295,-691,422,-244
1657304342335,-477,367,-188
1657304342375,-188,348,-231
1657304342415,32,368,-272
1657304342455,-984,1244,-49
1657304342495,-2048,982,1215
1657304342535,-2048,338,1425
1657304342575,-1027,-1,500
1657304342615,-443,-20,198
1657304342655,-158,-27,169
1657304342695,-67,-102,204
1657304342735,60,-282,192
1657304342775,-46,-423,169
1657304342815,-565,-527,212
1657304342855,-2048,280,857
1657304342895,-2048,699,1707
1657304342935,-1402,598,354
1657304342975,-781,586,32
1657304343015,-560,610,-9
1657304343055,-433,558,-72
1657304343095,-306,589,-49
1657304343135,-67,469,-119
1657304343175,-370,719,-262
1657304343215,-2048,1114,811
1657304343255,-2048,619,1091
1657304343295,-1476,34,393
1657304343335,-609,-152,-105
1657304343375,-243,-192,-101
1657304343415,-84,-44,299
1657304343455,-204,-117,513
1657304343495,-482,-398,587
1657304343535,-521,-396,550
1657304343575,-1515,-678,651
1657304343615,-1943,-315,895
1657304343655,-1744,-147,645
1657304343695,-1242,-41,211
1657304343735,-881,187,74
1657304343775,-626,364,-35
1657304343815,-385,379,-126
1657304343855,-259,343,-280
1657304343895,-279,150,-380
1657304343935,-928,894,88
1657304343975,-2048,446,2046
1657304344015,-2048,84,1752
1657304344055,-870,-319,814
1657304344095,-250,-249,289
1657304344135,-113,-264,-29
1657304344175,-85,-302,-66
1657304344215,-31,-295,-37
1657304344255,-13,-281,96
1657304344295,-491,-537,500
1657304344335,-2048,-873,1891
1657304344375,-2048,688,1689
1657304344415,-1153,86,526
1657304344455,-808,167,56
1657304344495,-670,329,11
1657304344535,-421,400,-138
1657304344575,-272,425,-284
1657304344615,-455,435,-74
1657304344655,-1238,600,68
1657304344695,-2048,1059,830
1657304344735,-2048,95,1138
1657304344775,-1191,-86,648
1657304344815,-465,-166,398
1657304344855,-143,-180,159
1657304344895,-27,-159,57
1657304344935,36,-170,33
1657304344975,-65,-194,48
1657304345015,-474,-247,-92
1657304345055,-2048,-367,524
1657304345095,-2048,292,838
1657304345135,-1216,181,281
1657304345175,-913,257,82
1657304345215,-623,397,-58
1657304345255,-381,410,-93
1657304345295,-273,432,-71
1657304345335,-171,414,-185
1657304345375,-315,387,-329
1657304345415,-1584,1073,-177
1657304345455,-2048,647,546
1657304345495,-2048,302,589
1657304345535,-1070,-174,423
1657304345575,-365,-127,191
1657304345615,-134,-106,76
1657304345655,-131,-80,227
1657304345695,-88,-121,185
1657304345735,-95,-123,73
1657304345775,-944,-278,258
1657304345815,-2048,-33,1195
1657304345855,-2048,580,952
1657304345895,-1313,140,431
1657304345935,-895,267,76
1657304345975,-576,337,-167
1657304346015,-381,403,-120
1657304346055,-225,467,-107
1657304346095,19,321,-309
1657304346135,-290,646,-421
1657304346175,-2048,1298,723
1657304346215,-2048,1140,1224
1657304346255,-1767,210,707
1657304346295,-426,-134,385
1657304346335,181,-277,161
1657304346375,363,-298,10
1657304346415,280,-265,13
1657304346455,138,-323,43
1657304346495,70,-400,-43
1657304346535,-2048,19,925
1657304346575,-2048,680,1572
1657304346615,-1863,486,393
1657304346655,-914,272,-70
1657304346695,-676,450,-107
1657304346735,-411,527,-139
1657304346775,-308,491,-77
1657304346815,-118,463,-153
1657304346855,-33,388,-256
1657304346895,-888,884,-77
1657304346935,-2048,931,1228
1657304346975,-2048,681,1175
1657304347015,-1049,-59,402
1657304347055,-383,-63,248
1657304347095,-76,-154,-32
1657304347135,6,-224,-63
1657304347175,17,-252,33
1657304347215,5,-211,6
1657304347255,-329,22,-216
1657304347295,-2048,-3,593
1657304347335,-2048,438,1174
1657304347375,-1309,72,491
1657304347415,-651,104,38
1657304347455,-461,166,-105
1657304347495,-232,226,-188
1657304347535,-126,331,-93
1657304347575,-192,452,-24
1657304347615,-543,567,-28
1657304347655,-1861,1390,378
1657304347695,-2048,959,909
1657304347735,-2048,311,993
1657304347775,-915,121,534
1657304347815,-453,-13,328
1657304347855,-181,-72,103
1657304347895,-66,-156,93
1657304347935,2,-234,33
1657304347975,-44,-266,39
1657304348015,-401,-433,176
1657304348055,-2048,-47,1012
1657304348095,-2048,350,1417
1657304348135,-1493,218,292
1657304348175,-1067,290,15
1657304348215,-776,383,-66
1657304348255,-357,469,-92
1657304348295,-178,542,-51
1657304348335,-81,464,-95
1657304348375,-494,662,-17
1657304348415,-1774,1120,303
1657304348455,-2048,676,1086
1657304348495,-2048,97,1029
1657304348535,-807,-75,373
1657304348575,-88,-198,27
1657304348615,96,-157,-59
1657304348655,-48,-186,108
1657304348695,-313,-234,217
1657304348735,-425,-269,83
1657304348775,-1406,-131,281
1657304348815,-2048,339,1118
1657304348855,-1846,474,1195
1657304348895,-1205,412,376
1657304348935,-862,527,170
1657304348975,-635,552,105
1657304349015,-338,538,6
1657304349055,-131,558,-53
1657304349095,59,524,-142
1657304349135,-150,653,-330
1657304349175,-2048,1466,555
1657304349215,-2048,786,1631
1657304349255,-1472,118,936
1657304349295,-555,-76,266
1657304349335,-246,-112,18
1657304349375,-139,-180,-23
1657304349415,-19,-197,74
1657304349455,-41,-205,81
1657304349495,-308,-292,-73
1657304349535,-2048,-92,695
1657304349575,-2048,76,1458
1657304349615,-1493,283,586
1657304349655,-1295,338,101
1657304349695,-968,451,38
1657304349735,-661,471,-29
1657304349775,-304,502,-18
1657304349815,15,520,-101
1657304349855,-72,623,-198
1657304349895,-1177,1448,205
1657304349935,-2048,1032,1370
1657304349975,-1932,186,1366
1657304350015,-933,-104,622
1657304350055,-348,-133,185
1657304350095,-209,-98,-17
1657304350135,-87,-113,27
1657304350175,67,-96,21
1657304350215,174,-173,-64
1657304350255,-813,-327,205
1657304350295,-2048,-99,1623
1657304350335,-1914,251,1668
1657304350375,-1371,232,298
1657304350415,-968,407,-51
1657304350455,-743,464,35
1657304350495,-442,457,7
1657304350535,-178,522,-32
1657304350575,109,447,-172
1657304350615,-453,823,-222
1657304350655,-2048,1457,669
1657304350695,-2048,692,1709
1657304350735,-1277,78,940
1657304350775,-321,-38,310
1657304350815,-117,-46,-7
1657304350855,-176,-131,-48
1657304350895,-48,-148,53
1657304350935,-84,-131,30
1657304350975,-356,-234,14
1657304351015,-2048,-139,679
1657304351055,-2048,181,1585
1657304351095,-1485,245,724
1657304351135,-1212,353,155
1657304351175,-912,419,114
1657304351215,-613,396,25
1657304351255,-347,378,32
1657304351295,-79,360,-114
1657304351335,-8,450,-313
1657304351375,-1357,1124,26
1657304351415,-2048,1140,903
1657304351455,-2026,876,1385
1657304351495,-862,219,640
1657304351535,-369,25,386
1657304351575,-196,-120,159
1657304351615,-97,-247,7
1657304351655,-31,-344,-32
1657304351695,-44,-305,2
1657304351735,-815,-304,104
1657304351775,-2048,224,1006
1657304351815,-2048,342,1557
1657304351855,-1328,291,451
1657304351895,-993,383,83
1657304351935,-717,412,89
1657304351975,-465,436,116
1657304352015,-206,463,90
1657304352055,84,489,-123
1657304352095,-219,708,-179
1657304352135,-1695,1299,462
1657304352175,-2048,1019,1379
1657304352215,-1824,320,1313
1657304352255,-841,-40,451
1657304352295,-317,-6,189
1657304352335,-138,-31,94
1657304352375,2,-68,68
1657304352415,77,-95,193
1657304352455,-196,-376,130
1657304352495,-1319,-325,333
1657304352535,-2048,116,1194
1657304352575,-2048,217,1300
1657304352615,-1449,303,372
1657304352655,-1012,432,127
1657304352695,-767,479,83
1657304352735,-594,504,152
1657304352775,-134,515,107
1657304352815,215,417,-116
1657304352855,-388,734,-185
1657304352895,-2048,1179,540
1657304352935,-2048,877,1451
1657304352975,-1519,67,1051
1657304353015,-340,-30,404
1657304353055,-97,-56,158
1657304353095,-56,-102,20
1657304353135,-4,-137,0
1657304353175,-68,-185,13
1657304353215,-762,-460,101
1657304353255,-2048,-3,943
1657304353295,-2048,131,1659
1657304353335,-1444,217,673
1657304353375,-1085,349,220
1657304353415,-724,461,167
1657304353455,-501,510,77
1657304353495,-268,533,94
1657304353535,-31,647,39
1657304353575,-219,881,-174
1657304353615,-1975,1033,274
1657304353655,-2048,874,1702
1657304353695,-1364,218,1373
1657304353735,-525,-43,276
1657304353775,-214,56,147
1657304353815,-114,-32,133
1657304353855,-29,-172,87
1657304353895,-88,-254,56
1657304353935,-197,-315,52
1657304353975,-1687,-224,581
1657304354015,-2048,31,1450
1657304354055,-1826,18,1473
1657304354095,-1206,159,336
1657304354135,-966,477,-84
1657304354175,-847,508,-73
1657304354215,-485,490,-24
1657304354255,-190,519,-75
1657304354295,80,478,-217
1657304354335,-743,762,-40
1657304354375,-2048,1085,1059
1657304354415,-2048,601,1911
1657304354455,-1320,74,1018
1657304354495,-515,-173,453
1657304354535,-175,-137,157
1657304354575,-97,-134,138
1657304354615,47,-230,78
1657304354655,107,-350,35
1657304354695,-41,-399,35
1657304354735,-2048,-281,855
1657304354775,-2048,488,1623
1657304354815,-1719,371,666
1657304354855,-1165,365,139
1657304354895,-841,405,153
1657304354935,-608,392,15
1657304354975,-345,352,-34
1657304355015,-96,340,-126
1657304355055,-67,482,-197
1657304355095,-771,1185,92
1657304355135,-2048,1019,963
1657304355175,-2048,448,1265
1657304355215,-1254,-130,432
1657304355255,-409,-94,162
1657304355295,-204,-13,163
1657304355335,-59,0,131
1657304355375,-79,-55,112
1657304355415,-330,-337,77
1657304355455,-982,-605,195
1657304355495,-2048,-396,630
1657304355535,-2048,-35,919
1657304355575,-1514,49,332
1657304355615,-1113,171,55
1657304355655,-834,338,-28
1657304355695,-599,363,12
1657304355735,-360,439,-16
1657304355775,-156,461,-22
1657304355815,-561,741,-55
1657304355855,-1838,1355,325
1657304355895,-2048,887,943
1657304355935,-1893,332,960
1657304355975,-795,-196,420
1657304356015,-297,-170,186
1657304356055,-56,-85,53
1657304356095,28,-207,33
1657304356135,76,-257,-34
1657304356175,105,-388,0
1657304356215,-1030,-678,249
1657304356255,-2048,183,1078
1657304356295,-2048,389,448
1657304356335,-1278,337,-206
1657304356375,-988,323,-65
1657304356415,-607,360,-168
1657304356455,-472,278,-52
1657304356495,-179,347,6
1657304356535,84,594,-55
1657304356575,286,661,-529
1657304356615,-2048,632,826
1657304356655,-2048,822,1262
1657304356695,-1317,-35,912
1657304356735,-530,-233,517
1657304356775,-22,-268,78
1657304356815,-23,-255,73
1657304356855,19,-274,108
1657304356895,37,-402,149
1657304356935,245,-563,167
1657304356975,-2048,-593,1059
1657304357015,-2048,542,1459
1657304357055,-1672,376,659
1657304357095,-1352,476,473
1657304357135,-932,514,172
1657304357175,-555,306,-99
1657304357215,-284,311,-313
1657304357255,-42,482,-287
1657304357295,-510,623,-61
1657304357335,-1246,890,273
1657304357375,-2048,711,966
1657304357415,-1844,292,1063
1657304357455,-1305,-319,937
1657304357495,-914,-569,588
1657304357535,-528,-471,298
1657304357575,-587,-353,126
1657304357615,-581,-271,-24
1657304357655,-444,-322,-22
1657304357695,-562,-408,203
1657304357735,-1562,-463,787
1657304357775,-1876,-379,940
1657304357815,-1325,-93,748
1657304357855,-1283,73,471
1657304357895,-897,246,206
1657304357935,-820,375,44
1657304357975,-514,380,-127
1657304358015,-329,424,-215
1657304358055,-301,293,-197
1657304358095,-1555,407,140
1657304358135,-2048,992,413
1657304358175,-2048,452,743
1657304358215,-1688,-26,635
1657304358255,-909,-130,392
1657304358295,-504,-326,19
1657304358335,-242,-271,-202
1657304358375,-164,-302,-103
1657304358415,-240,-284,-8
1657304358455,-831,-435,258
1657304358495,-2017,-522,767
1657304358535,-1841,6,804
1657304358575,-1199,239,293
1657304358615,-1087,181,46
1657304358655,-948,286,-18
1657304358695,-523,225,-147
1657304358735,-345,212,-152
1657304358775,-190,248,-142
1657304358815,-326,318,-99
1657304358855,-1519,777,-48
1657304358895,-2048,856,51
1657304358935,-2048,484,90
1657304358975,-1395,164,79
1657304359015,-585,-13,63
1657304359055,-262,-122,-136
1657304359095,-64,-99,-84
1657304359135,-12,-200,-20
1657304359175,60,-272,-76
1657304359215,-643,-366,-43
1657304359255,-2048,-562,765
1657304359295,-2048,864,904
1657304359335,-1071,543,-19
1657304359375,-540,668,-160
1657304359415,-93,552,-354
1657304359455,-133,349,-299
1657304359495,-146,307,-241
1657304359535,18,390,-279
1657304359575,-348,492,-234
1657304359615,-1706,1928,57
1657304359655,-2048,2047,908
1657304359695,-1690,1339,751
1657304359735,-998,386,369
1657304359775,-583,34,182
1657304359815,-348,-91,99
1657304359855,-261,-213,282
1657304359895,-101,-529,411
1657304359935,229,-549,151
1657304359975,-905,-269,255
1657304360015,-2048,1593,1186
1657304360055,-1835,1320,578
1657304360095,-1073,619,57
1657304360135,-789,582,-169
1657304360175,-478,507,-285
1657304360215,-249,377,-292
1657304360255,-140,386,-254
1657304360295,37,310,-326
1657304360335,223,354,-634
1657304360375,-2048,1760,-2
1657304360415,-2048,2047,991
1657304360455,-1486,610,656
1657304360495,-647,86,460
1657304360535,-132,-185,124
1657304360575,-52,-211,75
1657304360615,-7,-151,225
1657304360655,65,-193,166
1657304360695,-62,-383,148
1657304360735,-2007,195,540
1657304360775,-2048,1002,942
1657304360815,-1683,903,581
1657304360855,-1276,755,311
1657304360895,-950,812,43
1657304360935,-793,635,-22
1657304360975,-484,444,-47
1657304361015,-312,253,-195
1657304361055,-64,221,-415
1657304361095,45,394,-756
1657304361135,-2048,1144,20
1657304361175,-2048,2047,1353
1657304361215,-1372,801,973
1657304361255,-472,157,535
1657304361295,-49,-1,263
1657304361335,83,17,166
1657304361375,65,-98,231
1657304361415,15,-231,269
1657304361455,-136,-613,532
1657304361495,-2048,-305,1224
1657304361535,-2048,1099,1161
1657304361575,-1788,454,62
1657304361615,-1376,482,-155
1657304361655,-857,543,-330
1657304361695,-436,385,-366
1657304361735,-265,328,-225
1657304361775,-56,359,-178
1657304361815,59,293,-221
1657304361855,-919,753,-361
1657304361895,-2048,1519,497
1657304361935,-2048,1091,847
1657304361975,-733,340,533
1657304362015,-336,118,282
1657304362055,-190,35,118
1657304362095,-113,-96,64
1657304362135,-102,-146,79
1657304362175,-60,-232,35
1657304362215,-328,-447,213
1657304362255,-2048,401,874
1657304362295,-2048,1332,1215
1657304362335,-1375,605,326
1657304362375,-1199,486,21
1657304362415,-892,446,-249
1657304362455,-589,381,-253
1657304362495,-336,494,-159
1657304362535,-70,520,-175
1657304362575,234,507,-282
1657304362615,-804,1334,-447
1657304362655,-2048,1590,925
1657304362695,-2048,872,987
1657304362735,-845,28,411
1657304362775,-324,-124,276
1657304362815,29,-190,37
1657304362855,0,-224,104
1657304362895,71,-231,165
1657304362935,-12,-247,189
1657304362975,-690,-102,295
1657304363015,-2048,705,1120
1657304363055,-2048,1148,1058
1657304363095,-1442,469,124
1657304363135,-803,544,72
1657304363175,-476,708,82
1657304363215,-266,703,-24
1657304363255,-159,668,-8
1657304363295,25,531,-3
1657304363335,-35,644,-125
1657304363375,-1634,1885,472
1657304363415,-1895,2047,2041
1657304363455,-779,1157,1630
1657304363495,-449,156,720
1657304363535,-80,-190,195
1657304363575,81,-246,-61
1657304363615,65,-287,101
1657304363655,100,-297,85
1657304363695,235,-517,39
1657304363735,-725,-153,419
1657304363775,-2048,647,2046
1657304363815,-1927,1513,1706
1657304363855,-278,611,-142
1657304363895,96,514,-344
1657304363935,-334,228,-517
1657304363975,-89,88,-478
1657304364015,200,569,-100
1657304364055,-117,887,167
1657304364095,-682,2047,940
1657304364135,-1283,1997,2046
1657304364175,-710,1488,1549
1657304364215,-506,776,780
1657304364255,-645,288,257
1657304364295,-365,-96,377
1657304364335,-166,-161,46
1657304364375,-287,-8,633
1657304364415,-111,158,1353
1657304364455,-660,380,654
1657304364495,-566,889,391
1657304364535,-434,1137,851
1657304364575,-240,1111,820
1657304364615,-549,945,577
1657304364655,-380,854,204
1657304364695,-135,628,11
1657304364735,-657,563,724
1657304364775,239,413,244
1657304364815,-79,696,-47
1657304364855,-388,1701,775
1657304364895,-430,1695,675
1657304364935,-439,1401,588
1657304364975,-144,957,126
1657304365015,-106,475,-4
1657304365055,-56,203,-12
1657304365095,49,40,5
1657304365135,-91,-188,464
1657304365175,-757,234,713
1657304365215,-979,640,448
1657304365255,-1938,1277,493
1657304365295,-1216,1914,871
1657304365335,-830,1245,71
1657304365375,-801,923,-160
1657304365415,-292,600,-388
1657304365455,-114,484,-220
1657304365495,-176,694,-86
1657304365535,128,519,-372
1657304365575,-432,934,-607
1657304365615,-2048,2047,278
1657304365655,-2048,2047,775
1657304365695,-1409,1021,791
1657304365735,-392,181,367
1657304365775,-22,-58,237
1657304365815,25,-168,4
1657304365855,-162,-136,117
1657304365895,-173,-166,243
1657304365935,-2,-296,150
1657304365975,-520,60,83
1657304366015,-2048,642,1122
1657304366055,-2048,1420,1361
1657304366095,-1437,740,201
1657304366135,-824,450,-129
1657304366175,-665,458,-68
1657304366215,-344,454,-179
1657304366255,-85,530,-135
1657304366295,85,624,-134
1657304366335,81,706,-351
1657304366375,-2048,1787,35
1657304366415,-2048,2045,1147
1657304366455,-2048,937,1077
1657304366495,-1013,97,599
1657304366535,-193,-84,373
1657304366575,187,-240,117
1657304366615,299,-253,18
1657304366655,190,-222,192
1657304366695,77,-198,199
1657304366735,-299,-341,18
1657304366775,-2048,854,1135
1657304366815,-2048,1605,1504
1657304366855,-1103,573,43
1657304366895,-811,492,-183
1657304366935,-661,550,-131
1657304366975,-366,363,-254
1657304367015,-123,403,-173
1657304367055,-27,429,-80
1657304367095,-460,748,-197
1657304367135,-2048,1487,291
1657304367175,-2048,1642,1143
1657304367215,-1584,681,992
1657304367255,-767,125,563
1657304367295,-200,-96,268
1657304367335,52,-163,-4
1657304367375,85,-158,-15
1657304367415,108,-187,116
1657304367455,81,-287,126
1657304367495,-1639,-35,490
1657304367535,-2048,822,1636
1657304367575,-1887,647,906
1657304367615,-1205,254,10
1657304367655,-684,383,62
1657304367695,-429,509,-114
1657304367735,-213,598,-147
1657304367775,-150,520,-296
1657304367815,112,291,-416
1657304367855,-406,596,-693
1657304367895,-2048,1643,284
1657304367935,-2048,1111,656
1657304367975,-1228,175,473
1657304368015,-482,-75,534
1657304368055,126,-223,282
1657304368095,368,-301,93
1657304368135,106,-184,210
1657304368175,-43,-140,209
1657304368215,-47,-189,22
1657304368255,-2048,1241,231
1657304368295,-2048,1912,771
1657304368335,-1424,98,-290
1657304368375,-1100,224,-350
1657304368415,-780,352,-146
1657304368455,-287,472,-108
1657304368495,-117,522,-90
1657304368535,227,342,-211
1657304368575,-60,553,-404
1657304368615,-1876,1461,-420
1657304368655,-2048,2047,174
1657304368695,-1600,1288,343
1657304368735,-880,534,300
1657304368775,-387,178,189
1657304368815,-101,-37,46
1657304368855,19,-85,8
1657304368895,-127,-53,52
1657304368935,-283,-55,77
1657304368975,-598,-64,54
1657304369015,-2048,611,424
1657304369055,-2048,1672,894
1657304369095,-1365,877,207
1657304369135,-1206,660,-43
1657304369175,-885,548,-258
1657304369215,-376,421,-307
1657304369255,-29,458,-311
1657304369295,234,510,-397
1657304369335,289,315,-686
1657304369375,-800,1277,-759
1657304369415,-2048,2047,559
1657304369455,-1855,2047,1175
1657304369495,-1117,481,760
1657304369535,-670,-400,278
1657304369575,-21,-311,295
1657304369615,126,-266,271
1657304369655,115,-117,278
1657304369695,11,-212,171
1657304369735,-281,-110,351
1657304369775,-2048,1919,708
1657304369815,-2048,1768,388
1657304369855,-1315,832,-57
1657304369895,-862,615,-310
1657304369935,-796,350,224
1657304369975,-660,383,138
1657304370015,-217,576,120
1657304370055,109,406,-206
1657304370095,254,464,-444
1657304370135,-1183,1254,267
1657304370175,-2048,1898,1581
1657304370215,-2048,778,1102
1657304370255,-847,70,431
1657304370295,-190,-56,303
1657304370335,104,-304,89
1657304370375,179,-131,134
1657304370415,121,-168,190
1657304370455,145,-273,125
1657304370495,-319,-559,263
1657304370535,-2048,552,1515
1657304370575,-2048,654,1123
1657304370615,-1806,333,347
1657304370655,-1114,208,-79
1657304370695,-787,316,-187
1657304370735,-757,571,-162
1657304370775,-401,310,-318
1657304370815,-221,163,-252
1657304370855,-170,288,-349
1657304370895,-1625,755,-7
1657304370935,-2048,580,770
1657304370975,-2048,575,1057
1657304371015,-598,398,597
1657304371055,-342,231,119
1657304371095,-113,110,-65
1657304371135,-126,-99,-93
1657304371175,-183,66,51
1657304371215,-579,74,85
1657304371255,-1665,373,507
1657304371295,-1937,240,172
1657304371335,-2048,-99,910
1657304371375,-1526,-176,307
1657304371415,-1201,238,339
1657304371455,-998,593,321
1657304371495,-271,607,398
1657304371535,380,876,581
1657304371575,77,310,-42
1657304371615,-167,225,35
1657304371655,-826,1078,650
1657304371695,-1384,862,1229
1657304371735,-1699,466,1222
1657304371775,-1160,688,766
1657304371815,-836,352,75
1657304371855,-624,290,-234
1657304371895,-339,-1,-225
1657304371935,-330,-130,571
1657304371975,-497,113,168
1657304372015,-801,232,-104
1657304372055,-1658,554,364
1657304372095,-1939,794,1037
1657304372135,-1795,923,909
1657304372175,-913,738,516
1657304372215,-386,625,342
1657304372255,-88,-191,-105
1657304372295,-275,226,11
1657304372335,59,213,-172
1657304372375,195,407,-167
1657304372415,-308,1489,138
1657304372455,-1640,2047,770
1657304372495,-2048,1538,1205
1657304372535,-1202,662,874
1657304372575,-368,42,314
1657304372615,-221,-193,49
1657304372655,-187,-229,-128
1657304372695,-131,-212,-135
1657304372735,25,-356,44
1657304372775,-604,-289,54
1657304372815,-1916,175,937
1657304372855,-2048,-39,1660
1657304372895,-1876,444,907
1657304372935,-1653,693,398
1657304372975,-1146,834,202
1657304373015,-583,753,106
1657304373055,-253,615,107
1657304373095,23,545,39
1657304373135,133,539,-7
1657304373175,-573,922,72
1657304373215,-2048,1394,1523
1657304373255,-2048,459,1978
1657304373295,-1255,-201,753
1657304373335,-789,-290,203
1657304373375,-214,-84,-76
1657304373415,154,-99,-210
1657304373455,112,-261,-73
1657304373495,-36,-374,260
1657304373535,-233,-363,275
1657304373575,-2048,340,1033
1657304373615,-2048,979,1594
1657304373655,-1614,700,712
1657304373695,-947,537,186
1657304373735,-574,637,58
1657304373775,-363,666,25
1657304373815,-128,630,84
1657304373855,185,604,70
1657304373895,266,640,-131
1657304373935,-1607,1740,735
1657304373975,-2048,1482,1806
1657304374015,-1674,415,1625
1657304374055,-803,-46,518
1657304374095,-297,-53,163
1657304374135,-32,-120,49
1657304374175,69,-204,9
1657304374215,123,-322,73
1657304374255,210,-471,-26
1657304374295,-1261,-216,334
1657304374335,-2048,385,1260
1657304374375,-2048,684,1126
1657304374415,-1339,543,362
1657304374455,-788,534,25
1657304374495,-599,558,-74
1657304374535,-450,509,9
1657304374575,-152,472,-2
1657304374615,9,441,-120
1657304374655,-975,954,51
1657304374695,-2048,1648,977
1657304374735,-2048,924,1542
1657304374775,-1164,256,679
1657304374815,-509,-16,409
1657304374855,-161,-150,112
1657304374895,-28,-210,11
1657304374935,-6,-222,82
1657304374975,-172,-228,35
1657304375015,-395,-259,30
1657304375055,-2048,294,582
1657304375095,-2048,721,1459
1657304375135,-1540,664,881
1657304375175,-937,628,350
1657304375215,-688,651,246
1657304375255,-440,626,108
1657304375295,-237,596,105
1657304375335,-42,607,65
1657304375375,112,628,-76
1657304375415,-702,1284,138
1657304375455,-2048,1530,1454
1657304375495,-1951,698,1711
1657304375535,-854,10,601
1657304375575,-363,-53,154
1657304375615,-217,-77,-96
1657304375655,-70,-128,-96
1657304375695,-10,-38,152
1657304375735,-91,-77,217
1657304375775,-608,-204,378
1657304375815,-2048,83,768
1657304375855,-2048,600,1390
1657304375895,-1516,538,817
1657304375935,-1282,329,200
1657304375975,-758,362,137
1657304376015,-599,386,150
1657304376055,-278,461,138
1657304376095,-34,490,91
1657304376135,16,581,2
1657304376175,-904,1037,400
1657304376215,-2048,618,970
1657304376255,-2048,349,1351
1657304376295,-1332,-70,698
1657304376335,-496,-92,286
1657304376375,-274,27,32
1657304376415,-300,-83,46
1657304376455,-298,-128,98
1657304376495,-400,-180,122
1657304376535,-656,-405,62
1657304376575,-1893,-119,586
1657304376615,-2048,5,1254
1657304376655,-1619,281,852
1657304376695,-1233,373,469
1657304376735,-784,481,166
1657304376775,-530,566,24
1657304376815,-356,548,55
1657304376855,-37,476,-7
1657304376895,110,502,-148
1657304376935,-1060,1194,242
1657304376975,-2048,909,1290
1657304377015,-1833,430,1224
1657304377055,-1052,53,523
1657304377095,-562,6,129
1657304377135,-425,32,3
1657304377175,-247,-19,15
1657304377215,-114,-122,44
1657304377255,-294,-131,83
1657304377295,-1016,-220,211
1657304377335,-2048,-42,598
1657304377375,-1860,251,1006
1657304377415,-1337,307,584
1657304377455,-1092,404,338
1657304377495,-790,435,161
1657304377535,-543,434,42
1657304377575,-373,468,87
1657304377615,-115,403,19
1657304377655,-251,542,-33
1657304377695,-1508,1292,611
1657304377735,-2048,1112,1301
1657304377775,-1464,299,870
1657304377815,-699,77,297
1657304377855,-489,-77,-50
1657304377895,-286,-73,-262
1657304377935,-273,-37,77
1657304377975,-509,55,315
1657304378015,-597,61,275
1657304378055,-1405,163,481
1657304378095,-1838,277,806
1657304378135,-1380,493,920
1657304378175,-1288,590,637
1657304378215,-956,618,383
1657304378255,-546,693,24
1657304378295,-773,376,-220
1657304378335,-484,267,-282
1657304378375,40,471,86
1657304378415,-2,1037,-63
1657304378455,-2048,1539,520
1657304378495,-2048,1690,917
1657304378535,-1511,638,628
1657304378575,-501,144,255
1657304378615,-52,-6,181
1657304378655,123,-97,-17
1657304378695,157,-264,21
1657304378735,-55,-296,102
1657304378775,-160,-234,46
1657304378815,-2048,477,786
1657304378855,-2048,1217,1493
1657304378895,-1312,849,775
1657304378935,-700,636,118
1657304378975,-584,619,76
1657304379015,-370,500,-22
1657304379055,-207,369,-12
1657304379095,-129,368,89
1657304379135,-21,425,32
1657304379175,-843,1293,477
1657304379215,-2048,1569,1297
1657304379255,-1768,1303,1312
1657304379295,-959,546,738
1657304379335,-549,235,371
1657304379375,-172,55,197
1657304379415,-42,-42,22
1657304379455,21,-113,40
1657304379495,-105,-109,127
1657304379535,-98,-228,151
1657304379575,-1645,231,805
1657304379615,-2048,895,1786
1657304379655,-1632,799,1171
1657304379695,-1061,439,221
1657304379735,-672,449,44
1657304379775,-467,458,-20
1657304379815,-190,437,8
1657304379855,-15,419,37
1657304379895,92,416,-95
1657304379935,-988,1295,271
1657304379975,-2048,1608,1236
1657304380015,-1801,1095,1453
1657304380055,-1002,343,765
1657304380095,-477,70,430
1657304380135,-270,-50,57
1657304380175,-162,-146,-55
1657304380215,-90,-154,48
1657304380255,-54,-151,100
1657304380295,-251,-208,127
1657304380335,-2048,311,807
1657304380375,-2048,818,1614
1657304380415,-1635,445,649
1657304380455,-1061,501,227
1657304380495,-723,563,106
1657304380535,-584,590,52
1657304380575,-260,634,71
1657304380615,-41,586,-59
1657304380655,-69,574,-173
1657304380695,-1151,1158,307
1657304380735,-2048,1459,1177
1657304380775,-2048,867,1483
1657304380815,-1008,227,758
1657304380855,-450,-19,442
1657304380895,-177,-136,83
1657304380935,-100,-207,44
1657304380975,-79,-262,-9
1657304381015,-59,-289,-66
1657304381055,-336,-472,87
1657304381095,-2048,-196,851
1657304381135,-2048,379,1792
1657304381175,-1666,345,613
1657304381215,-1232,567,-24
1657304381255,-1034,557,58
1657304381295,-733,581,2
1657304381335,-276,551,-29
1657304381375,49,434,-153
1657304381415,-200,447,-214
1657304381455,-1948,1111,419
1657304381495,-2048,909,1396
1657304381535,-1920,69,727
1657304381575,-888,-98,312
1657304381615,-391,-88,221
1657304381655,-33,-89,-1
1657304381695,47,-99,-99
1657304381735,-96,-186,13
1657304381775,-272,-313,163
1657304381815,-1000,-187,506
1657304381855,-2048,427,1302
1657304381895,-1972,749,1273
1657304381935,-1439,564,583
1657304381975,-849,506,126
1657304382015,-617,560,-50
1657304382055,-496,588,29
1657304382095,-147,633,87
1657304382135,106,514,-18
1657304382175,-442,877,39
1657304382215,-2048,1432,881
1657304382255,-2048,1276,1515
1657304382295,-1512,413,1091
1657304382335,-452,61,499
1657304382375,-141,-4,208
1657304382415,-99,-73,-45
1657304382455,-46,-110,55
1657304382495,-10,-119,153
1657304382535,108,-339,91
1657304382575,-1202,-321,506
1657304382615,-2048,625,1598
1657304382655,-2048,824,1186
1657304382695,-1295,647,346
1657304382735,-897,588,168
1657304382775,-674,660,-101
1657304382815,-381,553,-121
1657304382855,-76,474,-134
1657304382895,173,387,-154
1657304382935,-280,683,-121
1657304382975,-2048,1397,589
1657304383015,-2048,1548,1502
1657304383055,-1471,457,1010
1657304383095,-511,117,422
1657304383135,-156,-22,146
1657304383175,-36,-60,-2
1657304383215,72,-157,57
1657304383255,85,-264,186
1657304383295,101,-588,212
1657304383335,-1887,-129,652
1657304383375,-2048,738,1736
1657304383415,-2048,730,953
1657304383455,-1128,550,258
1657304383495,-749,564,-2
1657304383535,-563,594,-36
1657304383575,-361,568,-22
1657304383615,-104,454,-104
1657304383655,-65,499,-223
1657304383695,-1208,1231,289
1657304383735,-2048,1397,1369
1657304383775,-2042,712,1369
1657304383815,-979,8,514
1657304383855,-407,-58,307
1657304383895,-105,-100,76
1657304383935,-9,-146,7
1657304383975,-53,-171,130
1657304384015,-52,-207,176
1657304384055,-641,-314,356
1657304384095,-2048,373,1122
1657304384135,-2048,865,1316
1657304384175,-1438,567,388
1657304384215,-1042,560,199
1657304384255,-720,500,-22
1657304384295,-388,501,-82
1657304384335,-191,477,-3
1657304384375,75,383,-110
1657304384415,47,507,-228
1657304384455,-1635,1448,394
1657304384495,-2048,1433,1307
1657304384535,-1979,600,1203
1657304384575,-738,26,378
1657304384615,-225,3,210
1657304384655,41,-99,2
1657304384695,95,-168,-5
1657304384735,21,-166,92
1657304384775,9,-244,74
1657304384815,-653,-269,307
1657304384855,-2048,385,1248
1657304384895,-2048,1087,1543
1657304384935,-1161,367,294
1657304384975,-605,278,19
1657304385015,-340,358,-181
1657304385055,-200,424,-230
1657304385095,-128,449,-226
1657304385135,-120,422,-310
1657304385175,-802,1000,-282
1657304385215,-2048,1600,382
1657304385255,-2048,1513,1053
1657304385295,-1295,574,944
1657304385335,-539,114,634
1657304385375,-170,-64,304
1657304385415,-105,-167,102
1657304385455,-87,-239,73
1657304385495,-61,-267,83
1657304385535,-130,-429,98
1657304385575,-2048,345,934
1657304385615,-2048,1317,1464
1657304385655,-1449,631,361
1657304385695,-1096,536,144
1657304385735,-718,487,-108
1657304385775,-425,411,-218
1657304385815,-210,375,-135
1657304385855,24,391,-128
1657304385895,-13,433,-273
1657304385935,-1628,1273,4
1657304385975,-2048,1681,789
1657304386015,-1922,940,781
1657304386055,-768,284,416
1657304386095,-311,88,210
1657304386135,-125,23,74
1657304386175,-44,-117,158
1657304386215,-23,-267,225
1657304386255,-153,-353,284
1657304386295,-952,-90,419
1657304386335,-2048,721,1016
1657304386375,-2048,1125,950
1657304386415,-1251,506,163
1657304386455,-777,398,2
1657304386495,-489,361,-154
1657304386535,-374,405,-64
1657304386575,-451,538,-69
1657304386615,-189,482,-213
1657304386655,-864,826,-112
1657304386695,-2048,1290,637
1657304386735,-2048,947,1061
1657304386775,-1562,191,589
1657304386815,-756,77,415
1657304386855,-254,-61,250
1657304386895,-29,-125,121
1657304386935,31,-107,156
1657304386975,56,-206,156
1657304387015,-145,-313,26
1657304387055,-1660,-37,1217
1657304387095,-2048,366,1951
1657304387135,-1321,558,1068
1657304387175,-957,321,378
1657304387215,-754,525,219
1657304387255,-507,493,50
1657304387295,-298,444,54
1657304387335,-223,433,-21
1657304387375,-313,303,-63
1657304387415,-1351,1060,402
1657304387455,-2048,1271,1381
1657304387495,-1978,676,1282
1657304387535,-1033,285,765
1657304387575,-432,109,287
1657304387615,-273,-33,154
1657304387655,18,49,153
1657304387695,-8,-114,198
1657304387735,-259,-147,346
1657304387775,-734,-162,697
1657304387815,-1632,117,1164
1657304387855,-1687,765,1561
1657304387895,-1277,564,789
1657304387935,-1158,535,468
1657304387975,-852,498,179
1657304388015,-472,459,-68
1657304388055,-300,432,-53
1657304388095,-187,307,-70
1657304388135,-7,231,-168
1657304388175,-825,864,23
1657304388215,-2048,925,1218
1657304388255,-1877,1086,1243
1657304388295,-1021,439,616
1657304388335,-603,212,335
1657304388375,-424,67,193
1657304388415,-261,-8,144
1657304388455,-288,-56,263
1657304388495,-372,-131,375
1657304388535,-643,-280,442
1657304388575,-1534,-19,1070
1657304388615,-1442,285,1077
1657304388655,-1326,396,741
1657304388695,-1237,456,530
1657304388735,-894,430,144
1657304388775,-638,471,-23
1657304388815,-542,593,25
1657304388855,-423,502,-87
1657304388895,-844,728,115
1657304388935,-1397,999,496
1657304388975,-1709,612,694
1657304389015,-1565,586,903
1657304389055,-1042,215,723
1657304389095,-647,-81,397
1657304389135,-370,-9,275
1657304389175,-363,53,308
1657304389215,-360,86,440
1657304389255,-594,-84,531
1657304389295,-1322,-186,853
1657304389335,-1503,95,955
1657304389375,-1300,437,777
1657304389415,-1246,473,565
1657304389455,-949,462,324
1657304389495,-592,477,111
1657304389535,-491,478,58
1657304389575,-377,410,-70
1657304389615,-405,409,-67
1657304389655,-780,885,233
1657304389695,-1389,1120,544
1657304389735,-1945,788,846
1657304389775,-1647,578,875
1657304389815,-974,191,646
1657304389855,-490,-54,239
1657304389895,-288,-62,67
1657304389935,-286,155,211
1657304389975,-345,-5,195
1657304390015,-577,-153,345
1657304390055,-1214,-108,768
1657304390095,-1830,87,1201
1657304390135,-1304,384,818
1657304390175,-1360,470,602
1657304390215,-1098,596,388
1657304390255,-787,593,144
1657304390295,-602,569,31
1657304390335,-354,510,0
1657304390375,-103,310,-153
1657304390415,-489,576,-60
1657304390455,-1413,993,379
1657304390495,-2048,1364,1069
1657304390535,-1619,911,1002
1657304390575,-1113,246,642
1657304390615,-634,-29,255
1657304390655,-333,-91,147
1657304390695,-209,-92,133
1657304390735,-149,-171,188
1657304390775,-63,-293,167
1657304390815,-1067,-256,793
1657304390855,-2048,365,1552
1657304390895,-1491,723,1031
1657304390935,-1395,585,572
1657304390975,-1135,632,313
1657304391015,-759,638,143
1657304391055,-556,702,116
1657304391095,-283,558,0
1657304391135,-87,386,-93
1657304391175,-579,652,119
1657304391215,-1589,898,816
1657304391255,-1906,920,1103
1657304391295,-1577,421,1080
1657304391335,-975,-32,593
1657304391375,-482,-105,161
1657304391415,-225,-74,57
1657304391455,-163,-21,100
1657304391495,-133,-89,152
1657304391535,-414,-155,279
1657304391575,-1898,-12,785
1657304391615,-2048,125,1293
1657304391655,-1543,139,643
1657304391695,-1242,203,270
1657304391735,-1091,227,184
1657304391775,-729,278,6
1657304391815,-414,398,-92
1657304391855,-194,489,-126
1657304391895,-220,527,-107
1657304391935,-993,951,256
1657304391975,-2044,804,607
1657304392015,-2030,667,977
1657304392055,-1263,170,859
1657304392095,-709,-291,470
1657304392135,-357,-274,282
1657304392175,-277,-234,162
1657304392215,-376,-256,135
1657304392255,-523,-265,251
1657304392295,-768,-299,374
1657304392335,-1508,-13,555
1657304392375,-1951,248,1035
1657304392415,-1597,348,803
1657304392455,-1113,349,442
1657304392495,-780,435,255
1657304392535,-551,435,22
1657304392575,-537,404,-56
1657304392615,-649,452,13
1657304392655,-1137,679,269
1657304392695,-1554,801,597
1657304392735,-1951,167,481
1657304392775,-1778,-156,607
1657304392815,-1164,-101,608
1657304392855,-575,-86,444
1657304392895,-298,-86,232
1657304392935,-262,-34,255
1657304392975,-134,-151,104
1657304393015,-579,-331,244
1657304393055,-1501,-454,535
1657304393095,-1717,8,618
1657304393135,-1676,374,715
1657304393175,-1397,357,335
1657304393215,-1080,403,106
1657304393255,-771,399,-1
1657304393295,-474,410,-54
1657304393335,-396,397,-26
1657304393375,-221,357,-60
1657304393415,-540,789,88
1657304393455,-1771,926,451
1657304393495,-2048,667,896
1657304393535,-1833,242,911
1657304393575,-620,15,428
1657304393615,-304,-74,146
1657304393655,-214,-84,-9
1657304393695,-152,-106,-29
1657304393735,-259,-186,-42
1657304393775,-468,-337,23
1657304393815,-1474,-382,412
1657304393855,-2048,34,918
1657304393895,-2048,133,972
1657304393935,-1406,172,468
1657304393975,-879,287,164
1657304394015,-666,412,115
1657304394055,-481,470,78
1657304394095,-314,508,10
1657304394135,-230,477,-1
1657304394175,-646,600,72
1657304394215,-1871,1354,513
1657304394255,-2048,595,1003
1657304394295,-1818,-70,898
1657304394335,-728,-123,554
1657304394375,-223,-127,274
1657304394415,-136,-169,87
1657304394455,-143,-132,47
1657304394495,-241,-172,213
1657304394535,-440,-280,371
1657304394575,-1030,-423,554
1657304394615,-2048,96,1277
1657304394655,-1858,592,1041
1657304394695,-1435,501,477
1657304394735,-933,525,175
1657304394775,-639,480,0
1657304394815,-499,452,-30
1657304394855,-256,359,-58
1657304394895,-110,316,-95
1657304394935,-266,802,-26
1657304394975,-2048,1170,982
1657304395015,-2048,749,1489
1657304395055,-1313,170,998
1657304395095,-504,-89,361
1657304395135,-210,-60,166
1657304395175,-136,-69,77
1657304395215,-115,-156,71
1657304395255,-175,-217,67
1657304395295,-293,-311,142
1657304395335,-1541,-241,737
1657304395375,-2048,201,1622
1657304395415,-1773,251,1331
1657304395455,-1161,217,422
1657304395495,-914,384,242
1657304395535,-756,394,182
1657304395575,-453,455,75
1657304395615,-238,482,55
1657304395655,40,475,-79
1657304395695,-73,440,-187
1657304395735,-1721,1794,721
1657304395775,-2048,613,1804
1657304395815,-1718,75,1027
1657304395855,-939,-301,222
1657304395895,-511,-189,49
1657304395935,-275,-177,53
1657304395975,-113,-221,52
1657304396015,-197,-318,49
1657304396055,-241,-302,61
1657304396095,-992,-347,266
1657304396135,-2048,23,800
1657304396175,-2048,228,825
1657304396215,-1395,426,233
1657304396255,-1053,421,116
1657304396295,-827,366,-58
1657304396335,-594,372,-105
1657304396375,-506,360,-54
1657304396415,-4,693,-12
1657304396455,81,526,-140
1657304396495,-1843,1164,301
1657304396535,-2048,531,1246
1657304396575,-1716,65,682
1657304396615,-898,-146,71
1657304396655,-462,10,75
1657304396695,-282,22,70
1657304396735,-97,26,94
1657304396775,-286,-53,234
1657304396815,-454,-162,179
1657304396855,-910,-318,165
1657304396895,-2048,-67,583
1657304396935,-2048,226,1124
1657304396975,-1454,238,626
1657304397015,-1067,300,244
1657304397055,-814,404,138
1657304397095,-668,364,61
1657304397135,-461,438,10
1657304397175,-295,533,231
1657304397215,-97,418,58
1657304397255,-995,651,234
1657304397295,-2048,808,963
1657304397335,-2048,306,1166
1657304397375,-1261,-19,512
1657304397415,-550,-70,293
1657304397455,-241,-57,210
1657304397495,-206,-144,101
1657304397535,-143,-237,46
1657304397575,-149,-305,70
1657304397615,-587,-491,108
1657304397655,-2048,-88,830
1657304397695,-2048,367,1186
1657304397735,-1540,410,582
1657304397775,-1161,389,257
1657304397815,-828,423,104
1657304397855,-570,408,37
1657304397895,-310,428,33
1657304397935,-69,435,-5
1657304397975,-133,573,56
1657304398015,-1270,831,544
1657304398055,-2048,263,531
1657304398095,-2048,272,921
1657304398135,-1311,-65,600
1657304398175,-497,23,358
1657304398215,-259,53,205
1657304398255,-220,2,119
1657304398295,-183,-104,175
1657304398335,-266,-255,143
1657304398375,-947,-491,367
1657304398415,-2039,8,768
1657304398455,-2048,185,1070
1657304398495,-1488,284,775
1657304398535,-1001,341,356
1657304398575,-826,394,161
1657304398615,-594,423,-27
1657304398655,-436,433,-105
1657304398695,-297,428,-24
1657304398735,-452,454,148
1657304398775,-1230,626,571
1657304398815,-1665,624,432
1657304398855,-2048,404,933
1657304398895,-1454,97,812
1657304398935,-629,-64,425
1657304398975,-305,-142,84
1657304399015,-364,-98,81
1657304399055,-192,-164,69
1657304399095,-338,-281,93
1657304399135,-586,-380,115
1657304399175,-1852,8,555
1657304399215,-2048,99,800
1657304399255,-1737,217,648
1657304399295,-1131,209,282
1657304399335,-736,331,112
1657304399375,-626,394,65
1657304399415,-534,472,52
1657304399455,-318,528,63
1657304399495,-228,672,181
1657304399535,-1180,974,560
1657304399575,-2048,542,942
1657304399615,-1894,353,1190
1657304399655,-1243,52,622
1657304399695,-566,-47,258
1657304399735,-312,-80,68
1657304399775,-191,-98,93
1657304399815,-128,-138,154
1657304399855,-182,-194,169
1657304399895,-401,-244,145
1657304399935,-1787,-237,644
1657304399975,-2048,126,1246
1657304400015,-1902,215,1037
1657304400055,-1446,247,394
1657304400095,-1054,388,159
1657304400135,-832,368,67
1657304400175,-515,365,-13
1657304400215,-212,369,-78
1657304400255,39,369,-152
1657304400295,-393,623,-119
1657304400335,-1748,1251,574
1657304400375,-2048,884,661
1657304400415,-1793,227,445
1657304400455,-1099,-263,676
1657304400495,-625,-295,593
1657304400535,-161,-214,413
1657304400575,-126,-253,424
1657304400615,-260,-326,290
1657304400655,-592,-246,388
1657304400695,-1114,-192,867
1657304400735,-1482,-267,1366
1657304400775,-1351,2,1109
1657304400815,-1041,71,666
1657304400855,-897,251,406
1657304400895,-579,373,145
1657304400935,-292,374,-93
1657304400975,-417,267,-109
1657304401015,-346,197,-159
1657304401055,-907,652,225
1657304401095,-2048,989,915
1657304401135,-2048,921,1168
1657304401175,-1963,425,1030
1657304401215,-860,31,668
1657304401255,-350,-103,332
1657304401295,-98,-158,84
1657304401335,-10,-170,-11
1657304401375,113,-316,-201
1657304401415,-430,-255,154
1657304401455,-1023,277,822
1657304401495,-1597,433,1354
1657304401535,-1136,327,1738
1657304401575,-841,371,1285
1657304401615,-615,410,885
1657304401655,-331,428,545
1657304401695,-350,304,315
1657304401735,-348,297,264
1657304401775,-476,453,231
1657304401815,-807,794,422
1657304401855,-1555,1090,755
1657304401895,-2048,460,1114
1657304401935,-1858,93,1153
1657304401975,-817,-272,641
1657304402015,-368,-401,303
1657304402055,-282,-390,106
1657304402095,-196,-314,-35
1657304402135,-61,-190,-6
1657304402175,-194,-68,53
1657304402215,-497,-205,89
1657304402255,-2048,-170,788
1657304402295,-2048,59,1263
1657304402335,-1510,106,566
1657304402375,-1035,219,176
1657304402415,-712,344,28
1657304402455,-630,335,12
1657304402495,-452,363,-59
1657304402535,-281,430,-19
1657304402575,-377,557,-62
1657304402615,-1824,976,671
1657304402655,-2048,413,1319
1657304402695,-1763,-35,903
1657304402735,-832,-160,327
1657304402775,-327,-24,191
1657304402815,-209,-10,85
1657304402855,-308,-137,12
1657304402895,-373,-175,89
1657304402935,-378,-212,200
1657304402975,-1380,-1073,59
1657304403015,-2048,-104,965
1657304403055,-2048,-108,884
1657304403095,-1335,294,219
1657304403135,-1238,485,111
1657304403175,-920,466,88
1657304403215,-560,455,4
1657304403255,-396,496,29
1657304403295,-181,394,-49
1657304403335,-298,362,-90
1657304403375,-1269,1262,226
1657304403415,-2048,391,1025
1657304403455,-2048,-50,948
1657304403495,-927,-253,329
1657304403535,-427,-197,162
1657304403575,-218,-141,73
1657304403615,-20,-284,108
1657304403655,-29,-549,154
1657304403695,-88,-509,68
1657304403735,-732,-399,184
1657304403775,-2048,-250,720
1657304403815,-2048,102,1175
1657304403855,-1600,213,418
1657304403895,-958,224,73
1657304403935,-599,364,-127
1657304403975,-475,414,-36
1657304404015,-376,271,43
1657304404055,-136,217,122
1657304404095,118,459,-10
1657304404135,-1424,824,367
1657304404175,-2048,677,715
1657304404215,-2048,417,1066
1657304404255,-895,-6,442
1657304404295,-379,-27,203
1657304404335,-256,7,150
1657304404375,-152,-194,165
1657304404415,-181,-278,211
1657304404455,-136,-336,100
1657304404495,-778,-582,170
1657304404535,-2048,-93,960
1657304404575,-2048,143,1290
1657304404615,-1406,132,447
1657304404655,-950,182,131
1657304404695,-778,333,106
1657304404735,-491,416,65
1657304404775,-268,498,39
1657304404815,-91,488,-68
1657304404855,-370,715,-15
1657304404895,-2048,994,679
1657304404935,-2048,618,1398
1657304404975,-1764,16,948
1657304405015,-787,-146,288
1657304405055,-368,-141,235
1657304405095,-145,-108,173
1657304405135,-53,-208,183
1657304405175,6,-240,109
1657304405215,-29,-290,34
1657304405255,-935,-459,195
1657304405295,-2048,175,1466
1657304405335,-2048,408,1222
1657304405375,-1260,235,181
1657304405415,-822,380,-10
1657304405455,-539,530,-86
1657304405495,-556,333,-270
1657304405535,-427,157,-247
1657304405575,-63,155,-205
1657304405615,-668,674,-33
1657304405655,-2048,1150,292
1657304405695,-2048,1121,847
1657304405735,-1775,440,671
1657304405775,-776,188,393
1657304405815,-311,-9,150
1657304405855,-154,-53,67
1657304405895,-68,-117,113
1657304405935,60,-241,28
1657304405975,145,-342,7
1657304406015,-131,-531,25
1657304406055,-2048,23,919
1657304406095,-2048,887,1044
1657304406135,-1642,636,146
1657304406175,-1007,533,-44
1657304406215,-676,545,-176
1657304406255,-481,426,-175
1657304406295,-203,394,-102
1657304406335,4,440,-103
1657304406375,90,499,-224
1657304406415,-1468,1278,-101
1657304406455,-2048,1591,686
1657304406495,-2048,932,883
1657304406535,-846,181,389
1657304406575,-328,27,291
1657304406615,-94,-81,141
1657304406655,-31,-183,122
1657304406695,86,-225,130
1657304406735,30,-325,34
1657304406775,-539,-447,225
1657304406815,-2048,318,1027
1657304406855,-2048,929,1030
1657304406895,-1615,602,316
1657304406935,-1184,505,55
1657304406975,-826,442,-114
1657304407015,-557,404,-147
1657304407055,-251,404,-105
1657304407095,-59,401,-119
1657304407135,177,407,-243
1657304407175,-62,801,-379
1657304407215,-2048,1376,673
1657304407255,-2048,1214,1181
1657304407295,-1490,322,759
1657304407335,-704,5,362
1657304407375,-372,-93,100
1657304407415,-248,-28,63
1657304407455,-154,35,137
1657304407495,-105,-18,76
1657304407535,250,-355,46
1657304407575,-2048,-532,741
1657304407615,-2048,959,2046
1657304407655,-1480,329,519
1657304407695,-1065,288,234
1657304407735,-677,225,-135
1657304407775,-479,220,-231
1657304407815,-340,263,-221
1657304407855,-68,284,-327
1657304407895,-155,523,-233
1657304407935,-1827,1175,336
1657304407975,-2048,1374,1283
1657304408015,-1927,618,850
1657304408055,-1197,387,631
1657304408095,-423,231,356
1657304408135,-135,3,111
1657304408175,-79,-126,93
1657304408215,34,-211,106
1657304408255,46,-356,134
1657304408295,159,-661,54
1657304408335,-2048,-133,1001
1657304408375,-2048,1012,1646
1657304408415,-1664,575,379
1657304408455,-1063,408,-5
1657304408495,-747,469,-159
1657304408535,-535,387,-190
1657304408575,-302,322,-175
1657304408615,-57,346,-211
1657304408655,-318,656,-93
1657304408695,-1583,1379,296
1657304408735,-2048,1501,1101
1657304408775,-1902,761,942
1657304408815,-1073,119,632
1657304408855,-450,-109,312
1657304408895,-122,-197,55
1657304408935,-50,-235,-1
1657304408975,76,-230,27
1657304409015,126,-291,136
1657304409055,64,-447,183
1657304409095,-2048,255,1318
1657304409135,-2048,881,1465
1657304409175,-1742,441,256
1657304409215,-1156,294,-47
1657304409255,-742,285,-305
1657304409295,-598,291,-304
1657304409335,-328,394,-232
1657304409375,-19,367,-229
1657304409415,-169,488,-386
1657304409455,-1948,1347,-66
1657304409495,-2048,1299,979
1657304409535,-2048,490,847
1657304409575,-898,-91,473
1657304409615,-280,-150,235
1657304409655,-27,-224,22
1657304409695,-18,-242,42
1657304409735,61,-267,107
1657304409775,110,-369,49
1657304409815,-587,-276,192
1657304409855,-2048,515,1276
1657304409895,-2048,996,1182
1657304409935,-1529,538,174
1657304409975,-1014,414,-85
1657304410015,-684,392,-180
1657304410055,-483,333,-198
1657304410095,-276,323,-137
1657304410135,12,307,-116
1657304410175,-24,520,-305
1657304410215,-2048,1477,412
1657304410255,-2048,1180,1102
1657304410295,-1654,456,892
1657304410335,-566,51,250
1657304410375,-239,25,115
1657304410415,-133,-38,58
1657304410455,7,-87,-56
1657304410495,-126,-209,68
1657304410535,-283,-248,135
1657304410575,-1377,3,637
1657304410615,-2048,472,1086
1657304410655,-2048,658,1009
1657304410695,-1251,276,127
1657304410735,-950,190,-179
1657304410775,-728,299,-100
1657304410815,-374,454,-95
1657304410855,-153,610,66
1657304410895,206,697,-8
1657304410935,-35,808,-211
1657304410975,-2048,1551,769
1657304411015,-2048,1139,1058
1657304411055,-1653,288,563
1657304411095,-799,153,399
1657304411135,-324,98,369
1657304411175,-145,-9,215
1657304411215,-94,-128,185
1657304411255,-116,-200,144
1657304411295,-180,-341,129
1657304411335,-1160,-426,289
1657304411375,-2048,964,1181
1657304411415,-2012,989,770
1657304411455,-1163,578,95
1657304411495,-1141,574,114
1657304411535,-862,465,-126
1657304411575,-613,425,-173
1657304411615,-371,421,-77
1657304411655,-84,330,-62
1657304411695,7,415,-200
1657304411735,-1089,1209,-170
1657304411775,-2048,1425,737
1657304411815,-2019,1261,831
1657304411855,-995,381,384
1657304411895,-571,190,301
1657304411935,-253,139,270
1657304411975,-33,86,240
1657304412015,-6,-88,186
1657304412055,-28,-205,40
1657304412095,-695,4,280
1657304412135,-2048,661,1149
1657304412175,-1689,733,667
1657304412215,-1300,560,287
1657304412255,-1046,617,265
1657304412295,-691,419,46
1657304412335,-526,433,-177
1657304412375,-403,422,-35
1657304412415,-274,443,-71
1657304412455,-471,550,-88
1657304412495,-1711,1090,80
1657304412535,-2048,1411,868
1657304412575,-1786,512,854
1657304412615,-1007,230,492
1657304412655,-473,100,196
1657304412695,-293,-38,-94
1657304412735,-220,-119,-151
1657304412775,-132,-157,-124
1657304412815,11,-310,-1
1657304412855,51,-557,73
1657304412895,-1496,-930,1262
1657304412935,-1431,-605,2046
1657304412975,-627,-13,2046
1657304413015,-825,186,965
1657304413055,-1009,223,814
1657304413095,-1157,456,811
1657304413135,-1032,607,498
1657304413175,-778,592,241
1657304413215,-554,419,38
1657304413255,-1586,626,618
1657304413295,-2048,273,1918
1657304413335,-2048,-358,2046
1657304413375,-1241,-595,1505
1657304413415,-431,-640,600
1657304413455,-46,-803,156
1657304413495,97,-491,104
1657304413535,151,-384,131
1657304413575,256,-460,53
1657304413615,592,-614,-120
1657304413655,-256,-833,249
1657304413695,-2048,705,2046
1657304413735,-2048,1074,1766
1657304413775,-1582,775,697
1657304413815,-1038,549,101
1657304413855,-607,482,-113
1657304413895,-560,475,-100
1657304413935,-263,343,-271
1657304413975,-89,403,-401
1657304414015,-644,345,-303
1657304414055,-2048,2047,1880
1657304414095,-2048,1167,1401
1657304414135,-1103,167,731
1657304414175,-400,35,454
1657304414215,-114,-114,204
1657304414255,-86,-199,186
1657304414295,-12,-125,294
1657304414335,255,-284,183
1657304414375,350,-617,109
1657304414415,-1567,-143,961
1657304414455,-2048,887,1843
1657304414495,-1687,1209,1413
1657304414535,-1302,966,657
1657304414575,-778,503,45
1657304414615,-490,460,-64
1657304414655,-248,574,-85
1657304414695,-68,372,-349
1657304414735,-134,457,-337
1657304414775,-1938,1434,313
1657304414815,-2048,1826,1186
1657304414855,-1973,793,1012
1657304414895,-1280,237,734
1657304414935,-572,132,523
1657304414975,-129,-35,363
1657304415015,-12,-215,317
1657304415055,141,-343,293
1657304415095,321,-444,270
1657304415135,125,-540,268
1657304415175,-2048,585,1304
1657304415215,-2048,1209,1086
1657304415255,-1788,857,421
1657304415295,-1054,689,51
1657304415335,-538,570,-131
1657304415375,-391,475,-160
1657304415415,-196,423,-153
1657304415455,46,292,-292
1657304415495,-231,442,-467
1657304415535,-2048,1940,817
1657304415575,-2048,1608,1488
1657304415615,-1512,352,884
1657304415655,-492,-70,480
1657304415695,-65,-195,319
1657304415735,132,-265,217
1657304415775,106,-349,230
1657304415815,251,-240,199
1657304415855,528,-456,3
1657304415895,-97,-695,348
1657304415935,-2048,325,2046
1657304415975,-2048,1220,1754
1657304416015,-1600,719,238
1657304416055,-1001,683,-254
1657304416095,-755,688,-406
1657304416135,-446,371,-342
1657304416175,-76,133,-270
1657304416215,83,83,-277
1657304416255,-1173,713,53
1657304416295,-2048,1314,1029
1657304416335,-2048,914,789
1657304416375,-1103,255,394
1657304416415,-494,39,144
1657304416455,-173,-31,2
1657304416495,-79,-98,24
1657304416535,-16,-133,118
1657304416575,22,-219,152
1657304416615,-95,-394,174
1657304416655,-2048,250,1115
1657304416695,-2048,1321,1355
1657304416735,-1507,804,556
1657304416775,-1137,657,252
1657304416815,-772,495,-95
1657304416855,-512,391,-259
1657304416895,-264,359,-189
1657304416935,-29,238,-194
1657304416975,-84,348,-224
1657304417015,-925,1032,-163
1657304417055,-2048,1341,832
1657304417095,-2048,1341,1134
1657304417135,-1062,237,515
1657304417175,-505,121,348
1657304417215,-209,-16,92
1657304417255,-100,-86,49
1657304417295,60,-126,122
1657304417335,52,-178,222
1657304417375,-142,-260,320
1657304417415,-2048,219,855
1657304417455,-2048,915,1064
1657304417495,-1810,785,353
1657304417535,-1175,633,35
1657304417575,-829,605,-135
1657304417615,-625,464,-209
1657304417655,-389,383,-109
1657304417695,-84,320,-50
1657304417735,-99,555,-87
1657304417775,-1100,1152,-222
1657304417815,-2048,1285,402
1657304417855,-2048,1376,908
1657304417895,-1031,294,502
1657304417935,-398,49,397
1657304417975,-87,-94,181
1657304418015,0,-180,139
1657304418055,136,-264,216
1657304418095,297,-637,579
1657304418135,137,-1120,732
1657304418175,-2048,-846,1144
1657304418215,-2048,1184,1710
1657304418255,-2048,955,793
1657304418295,-988,612,81
1657304418335,-614,517,-8
1657304418375,-472,386,-171
1657304418415,-336,223,-175
1657304418455,-104,76,-113
1657304418495,-835,40,58
1657304418535,-1136,1071,61
1657304418575,-2048,464,598
1657304418615,-2048,384,737
1657304418655,-902,140,405
1657304418695,-356,154,222
1657304418735,-284,-35,60
1657304418775,-113,-376,77
1657304418815,-44,-309,68
1657304418855,83,-266,99
1657304418895,-477,-317,77
1657304418935,-2048,210,1132
1657304418975,-2048,108,1110
1657304419015,-1459,262,269
1657304419055,-1259,144,-89
1657304419095,-765,510,39
1657304419135,-405,596,4
1657304419175,-172,558,-23
1657304419215,-78,432,-51
1657304419255,-180,643,-83
1657304419295,-2047,1090,332
1657304419335,-2048,951,1075
1657304419375,-1905,79,1029
1657304419415,-681,-5,499
1657304419455,-317,-52,229
1657304419495,-174,-102,39
1657304419535,-117,-221,17
1657304419575,-62,-213,43
1657304419615,83,-330,-4
1657304419655,-231,-487,106
1657304419695,-2048,-217,1369
1657304419735,-2048,22,1768
1657304419775,-1348,134,572
1657304419815,-938,322,134
1657304419855,-734,421,126
1657304419895,-500,403,96
1657304419935,-299,397,68
1657304419975,-45,354,-33
1657304420015,-18,546,-142
1657304420055,-2048,1141,673
1657304420095,-2048,1000,1437
1657304420135,-2048,42,918
1657304420175,-837,-144,279
1657304420215,-95,-215,272
1657304420255,260,-232,36
1657304420295,235,-270,-8
1657304420335,115,-306,134
1657304420375,257,-402,89
1657304420415,-190,-680,208
1657304420455,-2048,-446,1256
1657304420495,-2048,293,1499
1657304420535,-1991,276,560
1657304420575,-1058,361,81
1657304420615,-766,403,10
1657304420655,-565,498,-27
1657304420695,-312,497,-96
1657304420735,-61,477,-135
1657304420775,73,522,-174
1657304420815,-1317,1187,115
1657304420855,-2048,1197,1779
1657304420895,-2048,246,1559
1657304420935,-1147,-290,590
1657304420975,-326,-215,416
1657304421015,108,-230,277
1657304421055,201,-245,111
1657304421095,193,-244,101
1657304421135,266,-223,54
1657304421175,439,-657,47
1657304421215,-1586,-846,635
1657304421255,-2048,-2046,2046
1657304421295,-2048,-1159,1268
1657304421335,-1950,-163,480
1657304421375,-956,-2,-157
1657304421415,-855,326,-130
1657304421455,-616,597,169
1657304421495,-522,814,89
1657304421535,-506,845,61
1657304421575,-1845,715,482
1657304421615,-2048,462,1414
1657304421655,-2048,-455,1842
1657304421695,-1547,-777,1175
1657304421735,-553,-828,653
1657304421775,-58,-826,342
1657304421815,206,-629,48
1657304421855,260,-472,15
1657304421895,221,-365,33
1657304421935,428,-466,101
1657304421975,665,-804,18
1657304422015,-2048,-1126,1813
1657304422055,-2048,303,1637
1657304422095,-2048,13,-131
1657304422135,-1210,298,-158
1657304422175,-711,393,-252
1657304422215,-564,562,-263
1657304422255,-89,753,-309
1657304422295,120,682,-361
1657304422335,-1614,990,45
1657304422375,-2048,1157,1252
1657304422415,-2048,133,1397
1657304422455,-1587,-411,857
1657304422495,-626,-201,710
1657304422535,13,-300,532
1657304422575,17,-278,168
1657304422615,177,-345,53
1657304422655,220,-390,-79
1657304422695,240,-445,-60
1657304422735,-159,-768,272
1657304422775,-2048,-591,1908
1657304422815,-2048,216,1802
1657304422855,-1808,141,149
1657304422895,-1237,426,98
1657304422935,-946,575,-37
1657304422975,-705,612,-111
1657304423015,-362,590,-132
1657304423055,-23,621,-172
1657304423095,79,634,-168
1657304423135,-2048,1275,641
1657304423175,-2048,1270,2046
1657304423215,-2048,217,1663
1657304423255,-1116,-54,925
1657304423295,-381,-403,496
1657304423335,-20,-415,144
1657304423375,-10,-424,257
1657304423415,96,-461,205
1657304423455,174,-547,100
1657304423495,348,-682,-41
1657304423535,-1805,-621,468
1657304423575,-2048,-191,1792
1657304423615,-2048,268,776
1657304423655,-1253,299,6
1657304423695,-804,395,14
1657304423735,-648,445,-56
1657304423775,-485,438,-126
1657304423815,-333,499,-137
1657304423855,-186,557,-144
1657304423895,-1333,1117,25
1657304423935,-2048,690,1141
1657304423975,-2048,269,1351
1657304424015,-1309,-139,775
1657304424055,-527,-160,378
1657304424095,-64,-131,113
1657304424135,9,-125,-20
1657304424175,41,-239,-32
1657304424215,-79,-297,101
1657304424255,65,-340,104
1657304424295,-1419,-509,307
1657304424335,-2048,304,1198
1657304424375,-2048,312,574
1657304424415,-1068,262,-200
1657304424455,-933,306,99
1657304424495,-571,267,-65
1657304424535,-295,227,-87
1657304424575,-200,274,-22
1657304424615,-38,289,-94
1657304424655,-29,372,-127
1657304424695,-739,1035,-144
1657304424735,-2048,942,1026
1657304424775,-2048,559,1201
1657304424815,-1406,-105,578
1657304424855,-475,-135,191
1657304424895,-104,-214,144
1657304424935,11,-222,76
1657304424975,66,-327,116
1657304425015,77,-390,96
1657304425055,14,-609,106
1657304425095,-1662,-617,437
1657304425135,-2048,-181,1208
1657304425175,-2048,160,986
1657304425215,-1485,231,360
1657304425255,-881,369,141
1657304425295,-599,414,44
1657304425335,-387,713,-28
1657304425375,-224,1151,-96
1657304425415,58,1027,9
1657304425455,-740,1059,356
1657304425495,-2048,1016,2046
1657304425535,-2048,-41,2001
1657304425575,-1820,-425,747
1657304425615,-794,-513,477
1657304425655,-90,-568,271
1657304425695,215,-487,190
1657304425735,535,-400,326
1657304425775,664,-281,311
1657304425815,570,-327,184
1657304425855,-172,-252,107
1657304425895,-2048,-294,871
1657304425935,-2048,71,827
1657304425975,-1488,132,292
1657304426015,-994,36,165
1657304426055,-1921,270,508
1657304426095,-1224,508,295
1657304426135,-1071,574,132
1657304426175,-667,555,1
1657304426215,-818,591,97
1657304426255,-2048,732,711
1657304426295,-2048,527,1064
1657304426335,-2048,-7,1076
1657304426375,-863,46,812
1657304426415,-127,-40,455
1657304426455,52,-190,100
1657304426495,157,-206,-46
1657304426535,-16,-222,87
1657304426575,-4,-376,-80
1657304426615,-109,-643,-30
1657304426655,-758,-414,554
1657304426695,-2048,151,2036
1657304426735,-2048,299,2043
1657304426775,-1650,216,488
1657304426815,-1035,211,254
1657304426855,-938,244,123
1657304426895,-474,493,284
1657304426935,-528,624,370
1657304426975,-908,575,47
1657304427015,-913,556,143
1657304427055,-2048,-76,431
1657304427095,-2048,-878,988
1657304427135,-2048,-1036,793
1657304427175,-1264,-1071,403
1657304427215,-422,-898,156
1657304427255,92,-723,-187
1657304427295,79,-548,-250
1657304427335,23,-521,-236
1657304427375,130,-497,-470
1657304427415,398,-750,-277
1657304427455,-743,-860,391
1657304427495,-2048,-751,1090
1657304427535,-2048,-238,663
1657304427575,-1690,-169,71
1657304427615,-868,45,-1
1657304427655,-676,179,-84
1657304427695,-675,348,17
1657304427735,-745,826,193
1657304427775,-1030,774,533
1657304427815,-2048,483,344
1657304427855,-2048,399,866
1657304427895,-2048,-594,1221
1657304427935,-1542,-870,1103
1657304427975,-514,-703,736
1657304428015,30,-563,392
1657304428055,190,-495,173
1657304428095,68,-538,116
1657304428135,150,-493,-35
1657304428175,395,-533,-6
1657304428215,-414,-783,59
1657304428255,-2048,-470,881
1657304428295,-2048,-111,792
1657304428335,-1517,0,-6
1657304428375,-828,215,30
1657304428415,-578,269,64
1657304428455,-564,318,-13
1657304428495,-647,352,-79
1657304428535,-520,530,-156
1657304428575,-788,1068,315
1657304428615,-2048,751,627
1657304428655,-2048,89,928
1657304428695,-2048,-313,882
1657304428735,-1190,-399,358
1657304428775,-343,-328,401
1657304428815,74,-365,297
1657304428855,132,-351,189
1657304428895,115,-366,90
1657304428935,173,-315,-18
1657304428975,170,-324,-162
1657304429015,-1914,-308,109
1657304429055,-2048,126,924
1657304429095,-2048,140,496
1657304429135,-1225,87,-89
1657304429175,-785,118,-224
1657304429215,-385,179,-212
1657304429255,-180,279,-26
1657304429295,-24,383,49
1657304429335,-433,529,-5
1657304429375,-1390,970,112
1657304429415,-2048,924,556
1657304429455,-2048,297,493
1657304429495,-2048,14,270
1657304429535,-1432,-84,373
1657304429575,-1000,-235,39
1657304429615,-320,-284,55
1657304429655,-224,-337,-49
1657304429695,68,-483,205
1657304429735,-277,-81,-123
1657304429775,-589,676,90
1657304429815,-1062,1052,157
1657304429855,-1783,1235,154
1657304429895,-1343,1125,208
1657304429935,-720,761,148
1657304429975,-468,426,138
1657304430015,-113,253,146
1657304430055,74,102,265
1657304430095,-201,119,391
1657304430135,-312,781,461
1657304430175,-846,1048,479
1657304430215,-1038,1204,688
1657304430255,-911,1089,740
1657304430295,-848,729,727
1657304430335,-540,581,107
1657304430375,-270,306,86
1657304430415,-219,-43,188
1657304430455,-265,-248,305
1657304430495,-206,-233,249
1657304430535,-546,189,-99
1657304430575,-1151,368,-282
1657304430615,-1782,580,-143
1657304430655,-1646,238,186
1657304430695,-980,26,257
1657304430735,-1151,-91,407
1657304430775,-783,-72,392
1657304430815,-887,99,490
1657304430855,-945,345,595
1657304430895,-877,550,461
1657304430935,-1440,831,641
1657304430975,-2048,540,1165
1657304431015,-2048,-455,1049
1657304431055,-1827,-541,791
1657304431095,-751,-744,331
1657304431135,-116,-595,113
1657304431175,107,-486,-57
1657304431215,210,-398,-185
1657304431255,64,-408,-203
1657304431295,169,-467,-443
1657304431335,-1018,-306,208
1657304431375,-2048,-1024,811
1657304431415,-2048,-550,551
1657304431455,-1461,-166,-6
1657304431495,-826,141,-134
1657304431535,-671,260,-27
1657304431575,-523,289,24
1657304431615,-362,377,42
1657304431655,-224,489,21
1657304431695,-450,654,-119
1657304431735,-2048,605,-159
1657304431775,-2048,-514,-359
1657304431815,-2048,-662,-188
1657304431855,-907,-643,-115
1657304431895,-293,-368,-25
1657304431935,-129,-205,47
1657304431975,-57,-194,24
1657304432015,-78,-185,20
1657304432055,-59,-143,-25
1657304432095,169,-385,-139
1657304432135,-1243,-1362,-297
1657304432175,-2048,-1385,-285
1657304432215,-1925,-203,-13
1657304432255,-1132,67,-215
1657304432295,-682,204,-224
1657304432335,-557,203,-292
1657304432375,-427,343,-192
1657304432415,-297,483,-182
1657304432455,-125,530,-255
1657304432495,-1104,783,-158
1657304432535,-2048,120,193
1657304432575,-2048,-506,473
1657304432615,-1278,-769,405
1657304432655,-577,-455,262
1657304432695,-39,-267,214
1657304432735,96,-245,43
1657304432775,76,-239,37
1657304432815,67,-256,60
1657304432855,368,-499,22
1657304432895,-1177,-942,236
1657304432935,-2048,-988,1272
1657304432975,-2048,-265,1081
1657304433015,-1236,-40,298
1657304433055,-729,305,5
1657304433095,-409,465,-79
1657304433135,-391,596,-75
1657304433175,-261,650,-63
1657304433215,-276,477,41
1657304433255,-1645,451,308
1657304433295,-2048,544,827
1657304433335,-2048,-248,943
1657304433375,-1356,-178,541
1657304433415,-770,-148,491
1657304433455,-247,-196,183
1657304433495,-43,-158,21
1657304433535,26,-206,-7
1657304433575,103,-347,46
1657304433615,-8,-577,87
1657304433655,-1123,-802,143
1657304433695,-2048,-522,1169
1657304433735,-2048,-540,1481
1657304433775,-1544,-250,557
1657304433815,-828,50,55
1657304433855,-382,242,89
1657304433895,-522,121,77
1657304433935,-518,262,44
1657304433975,-178,476,-52
1657304434015,-318,615,14
1657304434055,-1905,887,552
1657304434095,-2048,-44,908
1657304434135,-2048,-880,1103
1657304434175,-1129,-751,1020
1657304434215,-314,-525,397
1657304434255,-71,-341,73
1657304434295,-60,-274,-12
1657304434335,-5,-275,36
1657304434375,122,-319,-59
1657304434415,307,-614,-116
1657304434455,-2048,-1306,154
1657304434495,-2048,-943,1116
1657304434535,-1675,-345,317
1657304434575,-1216,-125,-228
1657304434615,-821,247,-263
1657304434655,-688,347,-34
1657304434695,-472,410,42
1657304434735,-310,455,20
1657304434775,-198,432,-49
1657304434815,-2048,564,410
1657304434855,-2048,97,731
1657304434895,-2048,-480,874
1657304434935,-917,-389,503
1657304434975,-371,-231,223
1657304435015,-93,-134,15
1657304435055,3,-156,-81
1657304435095,17,-234,-77
1657304435135,-10,-325,-52
1657304435175,-648,-501,164
1657304435215,-2048,-442,945
1657304435255,-2048,-285,1258
1657304435295,-1521,-61,391
1657304435335,-1072,182,4
1657304435375,-793,274,-56
1657304435415,-519,305,6
1657304435455,-333,290,95
1657304435495,-88,376,60
1657304435535,-213,651,-67
1657304435575,-2048,1080,429
1657304435615,-2048,368,765
1657304435655,-2048,-101,705
1657304435695,-925,-441,307
1657304435735,-265,-300,166
1657304435775,42,-202,101
1657304435815,94,-240,43
1657304435855,164,-298,78
1657304435895,162,-514,161
1657304435935,-3,-572,-53
1657304435975,-2048,-860,366
1657304436015,-2048,-103,919
1657304436055,-1659,248,344
1657304436095,-1232,259,250
1657304436135,-894,364,91
1657304436175,-566,501,-10
1657304436215,-546,482,17
1657304436255,-39,389,-429
1657304436295,15,279,-282
1657304436335,-1482,728,11
1657304436375,-2048,520,773
1657304436415,-2048,-60,956
1657304436455,-1269,-283,598
1657304436495,-526,-129,343
1657304436535,-136,-80,155
1657304436575,-29,-62,-16
1657304436615,-44,-146,-26
1657304436655,-39,-266,-40
1657304436695,-194,-648,-101
1657304436735,-372,-447,264
1657304436775,-2048,-398,1164
1657304436815,-2048,-56,998
1657304436855,-1684,152,164
1657304436895,-1139,295,3
1657304436935,-678,377,-2
1657304436975,-494,473,-37
1657304437015,-307,480,-48
1657304437055,-83,447,-71
1657304437095,-319,607,-62
1657304437135,-2048,1217,621
1657304437175,-2048,553,1065
1657304437215,-1906,11,965
1657304437255,-727,-176,442
1657304437295,-246,-208,230
1657304437335,-45,-190,-40
1657304437375,-53,-274,-161
1657304437415,-216,-309,32
1657304437455,-317,-391,129
1657304437495,-1008,-440,82
1657304437535,-2048,-221,944
1657304437575,-2048,-17,674
1657304437615,-1692,156,363
1657304437655,-1096,358,104
1657304437695,-728,472,50
1657304437735,-662,511,89
1657304437775,-437,469,66
1657304437815,-118,426,-64
1657304437855,-443,595,45
1657304437895,-1826,988,795
1657304437935,-2048,463,932
1657304437975,-2048,142,875
1657304438015,-1095,-64,394
1657304438055,-499,-45,164
1657304438095,-248,-34,47
1657304438135,-91,-101,14
1657304438175,-69,-179,5
1657304438215,-113,-290,-41
1657304438255,-231,-416,15
1657304438295,-2048,-373,703
1657304438335,-2048,-149,1276
1657304438375,-1575,37,538
1657304438415,-1286,263,143
1657304438455,-989,296,153
1657304438495,-581,348,26
1657304438535,-440,445,109
1657304438575,-199,445,142
1657304438615,89,358,-14
1657304438655,-233,702,-46
1657304438695,-2048,1030,672
1657304438735,-2048,732,1128
1657304438775,-1974,126,1161
1657304438815,-838,-14,410
1657304438855,-489,13,60
1657304438895,-335,10,-24
1657304438935,-137,-138,98
1657304438975,59,-159,28
1657304439015,44,-235,-15
1657304439055,-310,-205,55
1657304439095,-2048,-132,645
1657304439135,-2048,25,1248
1657304439175,-1729,134,731
1657304439215,-1198,217,217
1657304439255,-705,302,80
1657304439295,-458,382,52
1657304439335,-325,494,72
1657304439375,-245,476,65
1657304439415,-411,546,36
1657304439455,-1614,1045,447
1657304439495,-2048,731,992
1657304439535,-2048,60,980
1657304439575,-1064,-203,420
1657304439615,-522,-172,206
1657304439655,-163,-85,73
1657304439695,-37,-71,-23
1657304439735,-35,-118,56
1657304439775,-322,-129,123
1657304439815,-992,-241,167
1657304439855,-2048,-7,515
1657304439895,-2048,76,731
1657304439935,-1452,165,313
1657304439975,-1036,231,81
1657304440015,-725,278,13
1657304440055,-467,329,5
1657304440095,-307,361,-1
1657304440135,-248,347,42
1657304440175,-418,485,-12
1657304440215,-1554,1047,318
1657304440255,-2048,436,402
1657304440295,-2048,32,564
1657304440335,-1219,-262,543
1657304440375,-575,-296,360
1657304440415,-126,-244,134
1657304440455,-139,-187,181
1657304440495,-328,-312,225
1657304440535,-452,-353,167
1657304440575,-879,-677,395
1657304440615,-1830,-746,830
1657304440655,-1934,-305,1002
1657304440695,-1402,-129,548
1657304440735,-1124,-34,200
1657304440775,-815,145,56
1657304440815,-592,292,37
1657304440855,-311,414,46
1657304440895,-324,353,-73
1657304440935,-427,278,-69
1657304440975,-1611,679,234
1657304441015,-2048,347,500
1657304441055,-2048,-208,259
1657304441095,-1266,-332,152
1657304441135,-672,-244,175
1657304441175,-369,-145,195
1657304441215,-222,-55,145
1657304441255,-248,-124,188
1657304441295,-328,-204,91
1657304441335,-629,-382,-61
1657304441375,-1795,-565,-142
1657304441415,-2048,-641,8
1657304441455,-1714,-336,204
1657304441495,-1360,-122,222
1657304441535,-994,21,186
1657304441575,-601,160,86
1657304441615,-378,334,118
1657304441655,-383,372,100
1657304441695,-424,314,4
1657304441735,-1242,530,209
1657304441775,-2048,410,486
1657304441815,-2048,-84,570
1657304441855,-1598,-269,422
1657304441895,-650,-223,187
1657304441935,-310,-191,-2
1657304441975,-185,-206,-168
1657304442015,-58,-141,19
1657304442055,-269,-348,-33
1657304442095,-342,-348,-197
1657304442135,-1782,-385,47
1657304442175,-2048,-451,414
1657304442215,-1879,-161,302
1657304442255,-1206,-50,13
1657304442295,-794,106,-28
1657304442335,-625,212,-24
1657304442375,-504,292,53
1657304442415,-396,354,85
1657304442455,-484,353,37
1657304442495,-1489,692,283
1657304442535,-2048,342,363
1657304442575,-2048,-109,252
1657304442615,-1399,-309,165
1657304442655,-752,-265,256
1657304442695,-351,-170,248
1657304442735,-191,-123,152
1657304442775,-237,-161,154
1657304442815,-281,-250,66
1657304442855,-505,-420,74
1657304442895,-1803,-475,238
1657304442935,-2048,-439,703
1657304442975,-1585,-6,395
1657304443015,-1185,41,107
1657304443055,-815,245,-8
1657304443095,-449,343,-45
1657304443135,-270,392,-26
1657304443175,-253,340,-31
1657304443215,-136,330,-82
1657304443255,-1516,874,188
1657304443295,-2048,571,816
1657304443335,-2048,25,972
1657304443375,-1254,-245,379
1657304443415,-510,-124,97
1657304443455,-244,-78,-2
1657304443495,-91,-115,-42
1657304443535,-97,-215,29
1657304443575,-66,-202,29
1657304443615,-453,-304,1
1657304443655,-2048,-432,302
1657304443695,-2048,-164,704
1657304443735,-1553,115,378
1657304443775,-1256,192,87
1657304443815,-1145,238,108
1657304443855,-741,324,28
1657304443895,-547,375,80
1657304443935,-404,338,79
1657304443975,-206,265,-61
1657304444015,-535,520,-30
1657304444055,-2048,768,585
1657304444095,-2048,129,755
1657304444135,-1728,-33,607
1657304444175,-784,-155,78
1657304444215,-439,-20,73
1657304444255,-238,-39,22
1657304444295,-68,-81,-27
1657304444335,-286,-175,79
1657304444375,-386,-223,41
1657304444415,-1103,-474,195
1657304444455,-2048,-263,618
1657304444495,-2006,-117,671
1657304444535,-1428,14,162
1657304444575,-1304,80,24
1657304444615,-874,136,-77
1657304444655,-549,262,-93
1657304444695,-413,324,48
1657304444735,-222,370,108
1657304444775,-226,329,17
1657304444815,-1040,590,127
1657304444855,-2048,626,558
1657304444895,-2048,339,812
1657304444935,-1574,-71,423
1657304444975,-724,-137,181
1657304445015,-378,-83,84
1657304445055,-240,-110,-16
1657304445095,-171,-166,7
1657304445135,-232,-176,61
1657304445175,-354,-285,55
1657304445215,-1305,-472,265
1657304445255,-2048,-379,607
1657304445295,-2048,-190,889
1657304445335,-1345,15,407
1657304445375,-1179,225,253
1657304445415,-939,314,156
1657304445455,-610,366,10
1657304445495,-456,370,-67
1657304445535,-257,275,-180
1657304445575,-322,302,-131
1657304445615,-1037,586,391
1657304445655,-2048,459,985
1657304445695,-2048,48,972
1657304445735,-1629,-186,357
1657304445775,-877,-90,253
1657304445815,-532,-45,134
1657304445855,-374,-36,87
1657304445895,-184,-79,38
1657304445935,-59,-170,-50
1657304445975,-209,-257,-64
1657304446015,-851,-332,304
1657304446055,-2048,-374,950
1657304446095,-2048,-91,1020
1657304446135,-1355,2,250
1657304446175,-951,226,35
1657304446215,-795,300,78
1657304446255,-527,334,-10
1657304446295,-371,370,11
1657304446335,-209,295,-12
1657304446375,-602,429,123
1657304446415,-1171,626,506
1657304446455,-2048,359,404
1657304446495,-2048,148,737
1657304446535,-1429,0,356
1657304446575,-815,20,149
1657304446615,-595,23,25
1657304446655,-448,-29,-5
1657304446695,-269,-107,46
1657304446735,-96,-66,91
1657304446775,-371,-445,293
1657304446815,-1388,-548,266
1657304446855,-2048,-284,490
1657304446895,-1939,90,189
1657304446935,-1612,158,47
1657304446975,-1149,172,10
1657304447015,-648,217,-13
1657304447055,-359,185,14
1657304447095,-369,113,196
1657304447135,-364,44,-128
1657304447175,-810,537,176
1657304447215,-1808,491,162
1657304447255,-2048,236,-20
1657304447295,-2048,-45,329
1657304447335,-1256,-187,161
1657304447375,-558,-103,129
1657304447415,-217,-14,49
1657304447455,-123,-4,72
1657304447495,-107,-128,89
1657304447535,-332,-512,272
1657304447575,-912,-601,11
1657304447615,-2048,-303,288
1657304447655,-2048,-4,868
1657304447695,-1523,123,439
1657304447735,-1163,203,202
1657304447775,-905,226,74
1657304447815,-647,287,-40
1657304447855,-505,295,-64
1657304447895,-302,78,-204
1657304447935,-334,358,-15
1657304447975,-1378,753,341
1657304448015,-2048,612,583
1657304448055,-2048,170,877
1657304448095,-1386,-28,550
1657304448135,-685,-74,273
1657304448175,-386,-67,77
1657304448215,-253,-105,-11
1657304448255,-158,-117,75
1657304448295,-266,-276,110
1657304448335,-478,-419,88
1657304448375,-1662,-304,364
1657304448415,-2048,-156,919
1657304448455,-1875,99,673
1657304448495,-1345,149,182
1657304448535,-1148,279,56
1657304448575,-949,282,-47
1657304448615,-562,317,-103
1657304448655,-284,172,-282
1657304448695,-2,233,-226
1657304448735,-693,508,-240
1657304448775,-1546,806,-100
1657304448815,-2048,-161,169
1657304448855,-1759,-694,656
1657304448895,-1519,-1056,372
1657304448935,-520,-666,327
1657304448975,-344,-222,463
1657304449015,-86,-155,253
1657304449055,-121,-177,152
1657304449095,-264,-295,88
1657304449135,-299,-814,2
1657304449175,-1894,-970,156
1657304449215,-2048,-584,534
1657304449255,-1984,-208,185
1657304449295,-1327,-17,-20
1657304449335,-811,174,-136
1657304449375,-665,336,-38
1657304449415,-574,449,66
1657304449455,-235,397,-61
1657304449495,-184,368,-43
1657304449535,-1544,596,226
1657304449575,-2048,245,609
1657304449615,-2048,-82,715
1657304449655,-1218,-253,314
1657304449695,-571,-187,149
1657304449735,-299,-111,135
1657304449775,-200,-133,63
1657304449815,-11,-214,0
1657304449855,-75,-246,51
1657304449895,9,-398,13
1657304449935,-1761,-713,271
1657304449975,-2048,-251,768
1657304450015,-2048,47,428
1657304450055,-1441,60,-7
1657304450095,-924,257,-89
1657304450135,-702,417,-4
1657304450175,-492,455,72
1657304450215,-224,450,24
1657304450255,5,407,-87
1657304450295,-600,637,-58
1657304450335,-2048,664,551
1657304450375,-2048,370,861
1657304450415,-1662,-82,631
1657304450455,-817,-125,330
1657304450495,-411,-137,219
1657304450535,-170,-170,52
1657304450575,-59,-212,68
1657304450615,32,-206,71
1657304450655,55,-257,-29
1657304450695,-884,-434,146
1657304450735,-2048,-284,709
1657304450775,-2048,-85,813
1657304450815,-1482,33,96
1657304450855,-1112,152,-61
1657304450895,-805,284,-123
1657304450935,-630,384,-80
1657304450975,-444,425,-26
1657304451015,-180,419,-51
1657304451055,-490,635,50
1657304451095,-1971,1193,629
1657304451135,-2048,360,902
1657304451175,-2034,-72,709
1657304451215,-816,-284,204
1657304451255,-372,-142,136
1657304451295,-221,-162,15
1657304451335,-65,-158,-14
1657304451375,-57,-239,145
1657304451415,-92,-252,142
1657304451455,-559,-322,250
1657304451495,-2048,-229,504
1657304451535,-2048,148,786
1657304451575,-1598,180,148
1657304451615,-1240,267,-57
1657304451655,-958,362,-52
1657304451695,-621,466,-41
1657304451735,-433,505,41
1657304451775,-191,480,-80
1657304451815,-171,525,-348
1657304451855,-1644,1230,32
1657304451895,-2048,681,1136
1657304451935,-2048,176,1068
1657304451975,-911,-286,295
1657304452015,-401,-159,203
1657304452055,-165,-116,187
1657304452095,-3,-160,41
1657304452135,48,-141,-27
1657304452175,68,-119,-34
1657304452215,-115,-208,22
1657304452255,-700,-296,210
1657304452295,-983,-658,456
1657304452335,-2048,-589,1334
1657304452375,-2048,284,1118
1657304452415,-1110,269,-103
1657304452455,-638,341,-177
1657304452495,-362,495,-87
1657304452535,-256,559,-85
1657304452575,-134,577,-139
1657304452615,90,536,-211
1657304452655,-1556,1104,128
1657304452695,-2048,624,1274
1657304452735,-2048,-221,1015
1657304452775,-1135,-457,349
1657304452815,-565,-247,429
1657304452855,-99,-201,232
1657304452895,120,-152,140
1657304452935,113,-124,154
1657304452975,187,-187,60
1657304453015,359,-436,91
1657304453055,0,-590,269
1657304453095,-2048,-1274,1073
1657304453135,-2048,536,1345
1657304453175,-1866,189,-188
1657304453215,-929,224,-198
1657304453255,-454,390,-323
1657304453295,-349,436,-325
1657304453335,-287,564,-293
1657304453375,-175,524,-289
1657304453415,329,504,-373
1657304453455,-2048,1058,50
1657304453495,-2048,913,1243
1657304453535,-2048,-364,816
1657304453575,-1040,-431,969
1657304453615,-150,-559,550
1657304453655,62,-578,243
1657304453695,111,-571,188
1657304453735,177,-593,89
1657304453775,387,-495,47
1657304453815,860,-634,82
1657304453855,-388,-1355,1174
1657304453895,-2048,-854,2046
1657304453935,-2048,386,1384
1657304453975,-2048,721,490
1657304454015,-1309,984,58
1657304454055,-827,903,-248
1657304454095,-493,756,-306
1657304454135,-3,626,-365
1657304454175,250,516,-315
1657304454215,125,445,-334
1657304454255,-2048,1089,1169
1657304454295,-2048,561,1432
1657304454335,-1344,-560,904
1657304454375,-318,-546,780
1657304454415,172,-311,497
1657304454455,271,-259,289
1657304454495,200,-264,153
1657304454535,164,-302,80
1657304454575,291,-508,177
1657304454615,57,-702,406
1657304454655,-2048,-340,1474
1657304454695,-2048,579,866
1657304454735,-1927,132,-130
1657304454775,-1121,287,-238
1657304454815,-693,370,-357
1657304454855,-431,485,-341
1657304454895,-174,596,-349
1657304454935,107,668,-308
1657304454975,-630,939,-352
1657304455015,-2048,1215,465
1657304455055,-2048,675,1048
1657304455095,-1683,-131,663
1657304455135,-936,-310,385
1657304455175,-250,-170,416
1657304455215,81,-275,224
1657304455255,101,-331,126
1657304455295,77,-318,111
1657304455335,72,-388,156
1657304455375,348,-529,378
1657304455415,-2048,-622,936
1657304455455,-2048,-181,32
1657304455495,-1377,47,-193
1657304455535,-1133,240,-281
1657304455575,-692,313,-346
1657304455615,-433,243,-284
1657304455655,-261,264,-238
1657304455695,-46,379,-191
1657304455735,-386,583,-233
1657304455775,-2048,585,-187
1657304455815,-2048,338,81
1657304455855,-2048,162,320
1657304455895,-1257,61,209
1657304455935,-446,89,80
1657304455975,-90,71,76
1657304456015,-58,-61,142
1657304456055,-74,-79,261
1657304456095,-144,-166,412
1657304456135,-35,-270,153
1657304456175,-1580,-42,262
1657304456215,-2048,168,209
1657304456255,-2048,292,-11
1657304456295,-1518,157,-301
1657304456335,-917,135,-383
1657304456375,-809,264,-308
1657304456415,-729,188,-374
1657304456455,-219,263,-362
1657304456495,50,357,-364
1657304456535,-664,745,-324
1657304456575,-2048,1313,182
1657304456615,-2048,1111,220
1657304456655,-1752,232,178
1657304456695,-904,78,168
1657304456735,-237,175,249
1657304456775,20,-28,127
1657304456815,113,-155,130
1657304456855,203,-79,243
1657304456895,67,203,599
1657304456935,-1887,-168,29
1657304456975,-2048,-231,-108
1657304457015,-2048,356,308
1657304457055,-1597,314,162
1657304457095,-1096,310,63
1657304457135,-630,333,-92
1657304457175,-496,398,-118
1657304457215,-423,502,-99
1657304457255,-320,294,-191
1657304457295,-543,364,-306
1657304457335,-1744,1157,-365
1657304457375,-2048,1262,13
1657304457415,-2048,1390,670
1657304457455,-1156,589,748
1657304457495,-467,-110,356
1657304457535,107,-1286,-395
1657304457575,-41,-417,-19
1657304457615,-189,123,346
1657304457655,-323,66,313
1657304457695,-423,-1,174
1657304457735,-1768,379,337
1657304457775,-2048,1216,1003
1657304457815,-1597,832,477
1657304457855,-1234,429,12
1657304457895,-747,329,-134
1657304457935,-402,297,-199
1657304457975,-398,372,-130
1657304458015,-438,525,-95
1657304458055,-634,738,-77
1657304458095,-1301,1141,-219
1657304458135,-2048,1747,404
1657304458175,-2048,1170,986
1657304458215,-1648,306,777
1657304458255,-520,-11,621
1657304458295,187,-163,398
1657304458335,310,-273,161
1657304458375,237,-378,65
1657304458415,129,-314,164
1657304458455,42,-340,265
1657304458495,-1408,100,451
1657304458535,-2048,1005,854
1657304458575,-2048,1011,327
1657304458615,-1496,669,-14
1657304458655,-1049,562,-167
1657304458695,-715,391,-298
1657304458735,-572,363,-221
1657304458775,-310,236,-255
1657304458815,22,128,-296
1657304458855,-568,509,-313
1657304458895,-2048,1373,-90
1657304458935,-2048,1824,548
1657304458975,-1985,923,437
1657304459015,-1079,209,336
1657304459055,-317,-43,341
1657304459095,76,-212,149
1657304459135,183,-262,43
1657304459175,136,-240,132
1657304459215,106,-341,316
1657304459255,139,-687,246
1657304459295,-2048,-110,1350
1657304459335,-2048,1340,1463
1657304459375,-2048,747,240
1657304459415,-1251,555,-31
1657304459455,-724,451,-281
1657304459495,-523,331,-329
1657304459535,-400,200,-304
1657304459575,-150,182,-242
1657304459615,-115,323,-192
1657304459655,-1251,925,-219
1657304459695,-2048,1563,478
1657304459735,-2048,1120,855
1657304459775,-1479,222,493
1657304459815,-693,42,321
1657304459855,-121,-104,199
1657304459895,108,-279,173
1657304459935,191,-230,235
1657304459975,240,-255,141
1657304460015,327,-370,42
1657304460055,-532,-370,292
1657304460095,-2048,753,1632
1657304460135,-2048,960,914
1657304460175,-1265,295,82
1657304460215,-715,103,-221
1657304460255,-388,173,-321
1657304460295,-244,264,-234
1657304460335,-198,427,-114
1657304460375,-86,546,-156
1657304460415,-652,988,-207
1657304460455,-2048,1852,485
1657304460495,-2048,1306,1078
1657304460535,-1595,312,861
1657304460575,-770,-5,746
1657304460615,-216,-216,447
1657304460655,-39,-316,359
1657304460695,31,-350,306
1657304460735,160,-518,427
1657304460775,425,-680,53
1657304460815,-532,-487,175
1657304460855,-2048,760,1365
1657304460895,-2048,1044,733
1657304460935,-1807,481,-2
1657304460975,-974,328,-156
1657304461015,-470,292,-400
1657304461055,-441,246,-369
1657304461095,-306,243,-298
1657304461135,-115,362,-186
1657304461175,-629,803,-178
1657304461215,-2048,1286,210
1657304461255,-2048,1237,708
1657304461295,-1670,247,525
1657304461335,-631,-32,395
1657304461375,55,-161,183
1657304461415,120,-151,77
1657304461455,135,-191,86
1657304461495,60,-320,53
1657304461535,368,-541,53
1657304461575,166,-862,596
1657304461615,-2048,577,2046
1657304461655,-2048,918,635
1657304461695,-1216,385,-283
1657304461735,-662,387,-185
1657304461775,-326,300,-401
1657304461815,-275,225,-345
1657304461855,-167,330,-287
1657304461895,-32,465,-227
1657304461935,-652,785,-316
1657304461975,-2048,1534,612
1657304462015,-2048,708,870
1657304462055,-1709,-79,724
1657304462095,-631,-229,585
1657304462135,-50,-307,307
1657304462175,0,-297,173
1657304462215,23,-275,214
1657304462255,144,-275,199
1657304462295,334,-441,88
1657304462335,-954,-185,312
1657304462375,-2048,673,1107
1657304462415,-2048,992,621
1657304462455,-1203,535,34
1657304462495,-849,479,-104
1657304462535,-554,427,-262
1657304462575,-417,402,-246
1657304462615,-274,424,-198
1657304462655,-26,423,-240
1657304462695,-688,934,-341
1657304462735,-2048,1460,238
1657304462775,-2048,1068,574
1657304462815,-1563,239,424
1657304462855,-678,19,370
1657304462895,-288,-53,263
1657304462935,1,-124,90
1657304462975,17,-228,158
1657304463015,136,-287,230
1657304463055,211,-322,105
1657304463095,-889,-24,289
1657304463135,-2048,467,1008
1657304463175,-2048,475,415
1657304463215,-1548,250,-139
1657304463255,-970,131,-324
1657304463295,-478,211,25
1657304463335,-396,505,170
1657304463375,-502,680,126
1657304463415,-655,899,67
1657304463455,-1241,1453,149
1657304463495,-2048,1365,689
1657304463535,-2048,640,1171
1657304463575,-1684,-31,868
1657304463615,-777,-389,494
1657304463655,-89,-383,282
1657304463695,116,-371,95
1657304463735,127,-381,55
1657304463775,152,-427,106
1657304463815,253,-316,6
1657304463855,-1193,-34,445
1657304463895,-2048,207,1353
1657304463935,-2048,239,1146
1657304463975,-1755,382,233
1657304464015,-1202,405,36
1657304464055,-757,374,-65
1657304464095,-541,417,-41
1657304464135,-355,614,82
1657304464175,-213,732,173
1657304464215,-622,1056,342
1657304464255,-2048,1262,1093
1657304464295,-2048,638,1605
1657304464335,-1779,-166,1296
1657304464375,-743,-382,556
1657304464415,-185,-431,195
1657304464455,136,-353,-154
1657304464495,143,-235,-95
1657304464535,63,-120,50
1657304464575,-10,-173,131
1657304464615,-870,-145,473
1657304464655,-2048,-28,1301
1657304464695,-2048,-239,1346
1657304464735,-1689,49,402
1657304464775,-1122,152,-39
1657304464815,-765,172,-179
1657304464855,-523,311,12
1657304464895,-231,502,35
1657304464935,-27,422,50
1657304464975,-140,589,-13
1657304465015,-1708,1467,516
1657304465055,-2048,1006,1014
1657304465095,-2048,142,974
1657304465135,-789,-130,561
1657304465175,-149,-188,296
1657304465215,61,-244,-69
1657304465255,84,-277,-148
1657304465295,37,-281,30
1657304465335,131,-487,220
1657304465375,-673,-663,235
1657304465415,-2048,-275,1246
1657304465455,-2048,47,1434
1657304465495,-1720,126,420
1657304465535,-1162,235,43
1657304465575,-753,300,19
1657304465615,-514,419,-31
1657304465655,-340,462,34
1657304465695,-121,435,-29
1657304465735,-94,483,-117
1657304465775,-1253,1193,241
1657304465815,-2048,948,974
1657304465855,-2048,253,1399
1657304465895,-1064,-220,655
1657304465935,-299,-215,289
1657304465975,-31,-198,72
1657304466015,79,-185,-90
1657304466055,99,-211,-67
1657304466095,36,-334,30
1657304466135,-379,-931,-36
1657304466175,-2048,-56,1153
1657304466215,-2048,-220,1206
1657304466255,-1647,35,283
1657304466295,-1389,183,93
1657304466335,-1125,330,31
1657304466375,-653,315,-21
1657304466415,-347,309,-38
1657304466455,-258,313,-46
1657304466495,-153,174,-196
1657304466535,-343,1209,471
1657304466575,-2048,943,739
1657304466615,-2048,582,484
1657304466655,-1987,63,424
1657304466695,-1053,-299,182
1657304466735,-634,-428,149
1657304466775,-280,-332,213
1657304466815,-116,-251,156
1657304466855,-134,-325,103
1657304466895,-251,-510,134
1657304466935,-969,-402,244
1657304466975,-2048,-199,486
1657304467015,-2048,76,576
1657304467055,-1627,135,221
1657304467095,-1099,229,22
1657304467135,-703,372,-67
1657304467175,-584,324,-153
1657304467215,-527,323,-38
1657304467255,-367,295,-32
1657304467295,-946,456,-36
1657304467335,-2048,838,323
1657304467375,-2048,364,712
1657304467415,-1719,167,844
1657304467455,-1130,-112,574
1657304467495,-688,-250,200
1657304467535,-392,-255,127
1657304467575,-99,-276,82
1657304467615,84,-282,38
1657304467655,168,-394,-8
1657304467695,-349,-535,86
1657304467735,-2048,-272,905
1657304467775,-2048,83,1446
1657304467815,-1655,68,547
1657304467855,-1148,183,157
1657304467895,-771,247,-3
1657304467935,-515,310,-133
1657304467975,-366,374,-111
1657304468015,-107,424,-97
1657304468055,-122,484,-151
1657304468095,-1941,1059,158
1657304468135,-2048,513,549
1657304468175,-2048,144,547
1657304468215,-916,-193,169
1657304468255,-404,-114,128
1657304468295,-120,-48,27
1657304468335,-36,-142,-59
1657304468375,-32,-222,34
1657304468415,-28,-320,108
1657304468455,-440,-517,203
1657304468495,-2048,-332,760
1657304468535,-2048,42,1049
1657304468575,-1741,168,587
1657304468615,-1155,174,144
1657304468655,-967,286,45
1657304468695,-585,319,-32
1657304468735,-329,419,-33
1657304468775,-195,458,-39
1657304468815,-154,446,-4
1657304468855,-653,637,134
1657304468895,-1998,1041,548
1657304468935,-2048,732,874
1657304468975,-2048,-67,1167
1657304469015,-666,-189,565
1657304469055,-167,-218,292
1657304469095,15,-215,-1
1657304469135,8,-230,-33
1657304469175,-32,-295,9
1657304469215,56,-429,41
1657304469255,-105,-773,192
