timestamp,accel_X,accel_Y,accel_Z
1657304677335,-782,-668,1
1657304677375,-771,-663,7
1657304677415,-774,-673,-11
1657304677455,-782,-679,0
1657304677495,-771,-672,2
1657304677535,-784,-669,-12
1657304677575,-795,-670,-3
1657304677615,-796,-671,9
1657304677655,-820,-733,-28
1657304677695,-739,-696,-24
1657304677735,-734,-648,0
1657304677775,-768,-619,41
1657304677815,-800,-628,58
1657304677855,-843,-668,18
1657304677895,-829,-691,-16
1657304677935,-807,-686,-29
1657304677975,-793,-670,3
1657304678015,-780,-679,-6
1657304678055,-772,-685,16
1657304678095,-750,-647,36
1657304678135,-764,-655,38
1657304678175,-767,-668,28
1657304678215,-788,-703,6
1657304678255,-789,-711,7
1657304678295,-758,-707,-20
1657304678335,-738,-708,-25
1657304678375,-727,-689,-15
1657304678415,-741,-670,54
1657304678455,-774,-658,98
1657304678495,-740,-669,54
1657304678535,-749,-713,-13
1657304678575,-756,-735,-59
1657304678615,-809,-733,-47
1657304678655,-829,-732,4
1657304678695,-829,-713,35
1657304678735,-794,-693,47
1657304678775,-749,-688,18
1657304678815,-723,-707,-17
1657304678855,-718,-712,-20
1657304678895,-716,-699,-10
1657304678935,-737,-690,5
1657304678975,-760,-677,33
1657304679015,-783,-681,34
1657304679055,-781,-681,32
1657304679095,-791,-705,-7
1657304679135,-766,-702,-46
1657304679175,-768,-703,-50
1657304679215,-765,-690,-32
1657304679255,-768,-684,-19
1657304679295,-779,-684,-3
1657304679335,-790,-699,-1
1657304679375,-768,-682,0
1657304679415,-773,-680,-10
1657304679455,-770,-681,-25
1657304679495,-772,-679,-23
1657304679535,-761,-683,-28
1657304679575,-782,-692,-32
1657304679615,-772,-688,-20
1657304679655,-784,-690,-21
1657304679695,-773,-681,-14
1657304679735,-770,-679,-6
1657304679775,-768,-680,-11
1657304679815,-778,-690,-26
1657304679855,-756,-680,-17
1657304679895,-771,-685,-40
1657304679935,-794,-694,-38
1657304679975,-798,-703,-41
1657304680015,-791,-691,-27
1657304680055,-779,-686,-30
1657304680095,-772,-680,-27
1657304680135,-751,-668,-29
1657304680175,-752,-673,-45
1657304680215,-772,-677,-25
1657304680255,-772,-673,-24
1657304680295,-779,-683,-16
1657304680335,-772,-679,-21
1657304680375,-770,-679,-33
1657304680415,-759,-675,-32
1657304680455,-778,-681,-20
1657304680495,-770,-675,-22
1657304680535,-781,-686,-38
1657304680575,-811,-718,-38
1657304680615,-793,-707,-13
1657304680655,-765,-686,-21
1657304680695,-759,-687,-45
1657304680735,-762,-680,-24
1657304680775,-771,-679,-30
1657304680815,-781,-682,-19
1657304680855,-775,-681,-18
1657304680895,-771,-687,-28
1657304680935,-762,-688,-38
1657304680975,-770,-681,-31
1657304681015,-775,-672,-12
1657304681055,-785,-685,-6
1657304681095,-783,-677,1
1657304681135,-775,-673,-10
1657304681175,-794,-690,-9
1657304681215,-780,-692,-14
1657304681255,-773,-697,-24
1657304681295,-765,-687,-24
1657304681335,-767,-690,-22
1657304681375,-775,-698,-18
1657304681415,-771,-689,-12
1657304681455,-769,-691,-23
1657304681495,-761,-683,-10
1657304681535,-763,-679,-4
1657304681575,-768,-683,-13
1657304681615,-775,-681,-7
1657304681655,-796,-687,-14
1657304681695,-815,-695,-18
1657304681735,-866,-743,-46
1657304681775,-1002,-833,-101
1657304681815,-1066,-851,-144
1657304681855,-1417,-1001,-289
1657304681895,-1263,-676,-218
1657304681935,-881,-346,-289
1657304681975,-756,-128,-309
1657304682015,-729,-37,-316
1657304682055,-729,11,-217
1657304682095,-660,-22,-317
1657304682135,-468,-66,-502
1657304682175,-346,-30,-565
1657304682215,-251,-6,-695
1657304682255,-625,-128,-832
1657304682295,-706,-245,-885
1657304682335,-613,-126,-832
1657304682375,-584,-112,-910
1657304682415,-437,-198,-689
1657304682455,-567,156,-791
1657304682495,-539,-102,-883
1657304682535,-657,-35,-1164
1657304682575,-564,293,-932
1657304682615,-461,14,-667
1657304682655,-648,146,-642
1657304682695,-791,226,-847
1657304682735,-681,158,-730
1657304682775,-718,204,-904
1657304682815,-706,248,-660
1657304682855,-645,309,-605
1657304682895,-702,298,-595
1657304682935,-794,260,-657
1657304682975,-821,250,-654
1657304683015,-703,275,-686
1657304683055,-653,280,-707
1657304683095,-690,257,-744
1657304683135,-721,278,-674
1657304683175,-711,271,-613
1657304683215,-768,268,-649
1657304683255,-771,260,-630
1657304683295,-726,215,-642
1657304683335,-747,171,-682
1657304683375,-715,177,-687
1657304683415,-733,116,-727
1657304683455,-724,91,-704
1657304683495,-709,106,-642
1657304683535,-766,61,-633
1657304683575,-758,51,-620
1657304683615,-775,33,-611
1657304683655,-801,8,-576
1657304683695,-761,0,-621
1657304683735,-825,-32,-612
1657304683775,-824,-41,-594
1657304683815,-891,-38,-579
1657304683855,-897,-7,-589
1657304683895,-974,-57,-537
1657304683935,-965,-51,-486
1657304683975,-997,-68,-437
1657304684015,-969,-89,-431
1657304684055,-968,-110,-389
1657304684095,-1027,-179,-358
1657304684135,-1011,-213,-342
1657304684175,-951,-248,-303
1657304684215,-972,-244,-330
1657304684255,-885,-190,-396
1657304684295,-960,-166,-461
1657304684335,-888,-171,-365
1657304684375,-766,-115,-625
1657304684415,-789,-203,-620
1657304684455,-838,-226,-751
1657304684495,-635,-165,-645
1657304684535,-754,-285,-845
1657304684575,-670,-219,-723
1657304684615,-648,-208,-753
1657304684655,-703,-201,-758
1657304684695,-730,-229,-794
1657304684735,-733,-245,-785
1657304684775,-709,-214,-769
1657304684815,-690,-176,-680
1657304684855,-710,-181,-742
1657304684895,-720,-169,-712
1657304684935,-770,-191,-721
1657304684975,-750,-212,-753
1657304685015,-699,-194,-693
1657304685055,-706,-186,-669
1657304685095,-682,-160,-708
1657304685135,-719,-170,-706
1657304685175,-738,-161,-744
1657304685215,-740,-169,-746
1657304685255,-753,-170,-703
1657304685295,-737,-143,-682
1657304685335,-746,-150,-694
1657304685375,-737,-127,-678
1657304685415,-763,-146,-718
1657304685455,-767,-142,-702
1657304685495,-775,-137,-686
1657304685535,-754,-153,-700
1657304685575,-757,-154,-713
1657304685615,-741,-155,-696
1657304685655,-729,-128,-675
1657304685695,-719,-119,-651
1657304685735,-778,-145,-667
1657304685775,-785,-165,-632
1657304685815,-769,-176,-666
1657304685855,-710,-204,-739
1657304685895,-687,-208,-716
1657304685935,-709,-196,-708
1657304685975,-720,-150,-731
1657304686015,-790,-138,-783
1657304686055,-875,-134,-757
1657304686095,-933,-116,-669
1657304686135,-917,-81,-616
1657304686175,-822,-70,-603
1657304686215,-716,-70,-669
1657304686255,-656,-4,-592
1657304686295,-638,-6,-555
1657304686335,-643,-49,-550
1657304686375,-609,-102,-582
1657304686415,-651,-215,-738
1657304686455,-880,-365,-854
1657304686495,-860,-369,-814
1657304686535,-695,-330,-744
1657304686575,-468,-243,-649
1657304686615,-453,-238,-660
1657304686655,-677,-338,-831
1657304686695,-837,-399,-924
1657304686735,-744,-352,-807
1657304686775,-676,-364,-739
1657304686815,-668,-375,-735
1657304686855,-650,-355,-639
1657304686895,-659,-359,-664
1657304686935,-686,-377,-657
1657304686975,-736,-422,-713
1657304687015,-748,-430,-686
1657304687055,-663,-369,-623
1657304687095,-638,-335,-618
1657304687135,-681,-289,-622
1657304687175,-900,-354,-773
1657304687215,-1125,-415,-899
1657304687255,-1024,-345,-752
1657304687295,-804,-283,-682
1657304687335,-639,-195,-563
1657304687375,-636,-91,-484
1657304687415,-666,-62,-497
1657304687455,-690,-72,-643
1657304687495,-869,-193,-858
1657304687535,-778,-109,-645
1657304687575,-740,-48,-520
1657304687615,-613,-32,-498
1657304687655,-664,-87,-706
1657304687695,-728,-122,-780
1657304687735,-762,-71,-701
1657304687775,-634,-69,-747
1657304687815,-713,-68,-681
1657304687855,-748,-108,-898
1657304687895,-679,-70,-861
1657304687935,-591,-63,-877
1657304687975,-761,-125,-705
1657304688015,-650,-121,-765
1657304688055,-450,-13,-646
1657304688095,-446,-255,-542
1657304688135,-588,-348,-592
1657304688175,-721,-446,-798
1657304688215,-587,-483,-1155
1657304688255,-842,-299,-884
1657304688295,-514,-156,-685
1657304688335,-463,-76,-719
1657304688375,-565,6,-708
1657304688415,-607,-44,-986
1657304688455,-547,-18,-821
1657304688495,-691,-121,-845
1657304688535,-756,-204,-796
1657304688575,-752,-256,-707
1657304688615,-589,-101,-472
1657304688655,-640,-221,-508
1657304688695,-620,-277,-516
1657304688735,-613,-313,-473
1657304688775,-543,-253,-428
1657304688815,-443,-262,-393
1657304688855,-577,-427,-455
1657304688895,-619,-628,-567
1657304688935,-653,-711,-514
1657304688975,-637,-862,-418
1657304689015,-659,-904,-315
1657304689055,-535,-863,-79
1657304689095,-478,-923,106
1657304689135,-498,-1021,203
1657304689175,-523,-1139,219
1657304689215,-508,-1208,215
1657304689255,-506,-1189,229
1657304689295,-514,-1150,266
1657304689335,-441,-1172,250
1657304689375,-459,-1077,137
1657304689415,-339,-1138,70
1657304689455,-140,-1132,116
1657304689495,-183,-1024,208
1657304689535,-205,-945,236
1657304689575,-192,-857,150
1657304689615,-242,-872,98
1657304689655,-217,-837,38
1657304689695,-261,-826,5
1657304689735,-312,-831,-71
1657304689775,-302,-852,-25
1657304689815,-244,-970,60
1657304689855,-182,-1309,21
1657304689895,-456,-1204,177
1657304689935,-549,-1133,396
1657304689975,-456,-1169,340
1657304690015,-389,-1163,204
1657304690055,-357,-1022,231
1657304690095,-276,-935,302
1657304690135,-168,-903,192
1657304690175,-153,-836,259
1657304690215,-105,-856,274
1657304690255,-165,-914,171
1657304690295,-220,-928,188
1657304690335,-264,-914,213
1657304690375,-325,-850,167
1657304690415,-266,-861,160
1657304690455,-273,-875,105
1657304690495,-421,-1064,87
1657304690535,-174,-1261,32
1657304690575,-6,-1286,-58
1657304690615,34,-1205,156
1657304690655,-89,-1140,258
1657304690695,-260,-1109,296
1657304690735,-457,-1049,117
1657304690775,-496,-913,7
1657304690815,-573,-751,-59
1657304690855,-578,-652,-77
1657304690895,-549,-657,-50
1657304690935,-541,-794,0
1657304690975,-431,-992,74
1657304691015,-476,-1186,145
1657304691055,-445,-1427,257
1657304691095,-477,-1520,317
1657304691135,-460,-1418,364
1657304691175,-308,-1208,319
1657304691215,-213,-1020,281
1657304691255,-159,-933,178
1657304691295,-153,-865,86
1657304691335,-144,-805,18
1657304691375,-159,-872,64
1657304691415,24,-1271,45
1657304691455,86,-1201,-37
1657304691495,-232,-1124,138
1657304691535,-464,-1047,179
1657304691575,-686,-874,24
1657304691615,-757,-658,-31
1657304691655,-803,-507,-65
1657304691695,-884,-325,-89
1657304691735,-918,-250,-46
1657304691775,-921,-340,-26
1657304691815,-801,-733,104
1657304691855,-965,-1305,141
1657304691895,-1127,-1536,170
1657304691935,-761,-1314,247
1657304691975,-592,-1144,216
1657304692015,-434,-951,135
1657304692055,-282,-726,76
1657304692095,-225,-556,27
1657304692135,-156,-500,1
1657304692175,-33,-751,-81
1657304692215,134,-1303,-154
1657304692255,101,-1437,-90
1657304692295,-385,-1535,58
1657304692335,-788,-1447,40
1657304692375,-711,-977,-76
1657304692415,-757,-645,-10
1657304692455,-845,-372,41
1657304692495,-1070,-271,40
1657304692535,-1114,-316,4
1657304692575,-867,-553,97
1657304692615,-1019,-1147,159
1657304692655,-1309,-1660,131
1657304692695,-1089,-1661,293
1657304692735,-784,-1379,328
1657304692775,-384,-1086,190
1657304692815,19,-779,-14
1657304692855,116,-557,-1
1657304692895,256,-562,-75
1657304692935,358,-835,-122
1657304692975,743,-1348,-254
1657304693015,397,-1710,79
1657304693055,-479,-1874,625
1657304693095,-464,-1496,683
1657304693135,-795,-1184,426
1657304693175,-854,-870,196
1657304693215,-795,-544,108
1657304693255,-849,-253,67
1657304693295,-856,-192,28
1657304693335,-882,-460,68
1657304693375,-633,-1187,391
1657304693415,-1205,-2046,23
1657304693455,-1099,-2046,-117
1657304693495,-646,-1907,290
1657304693535,-242,-1444,301
1657304693575,110,-1038,121
1657304693615,279,-705,2
1657304693655,345,-500,30
1657304693695,351,-661,154
1657304693735,462,-1171,45
1657304693775,472,-1253,27
1657304693815,-235,-1504,211
1657304693855,-617,-1538,288
1657304693895,-797,-1218,223
1657304693935,-947,-846,183
1657304693975,-949,-553,27
1657304694015,-1156,-403,-150
1657304694055,-1179,-251,-44
1657304694095,-1111,-324,94
1657304694135,-859,-879,180
1657304694175,-1118,-1723,86
1657304694215,-1257,-2046,-93
1657304694255,-835,-1798,165
1657304694295,-365,-1411,183
1657304694335,83,-1040,26
1657304694375,386,-703,-144
1657304694415,373,-562,-63
1657304694455,357,-712,-9
1657304694495,590,-1153,-123
1657304694535,38,-1719,-123
1657304694575,-879,-1853,-122
1657304694615,-712,-1286,203
1657304694655,-760,-826,191
1657304694695,-1057,-643,-19
1657304694735,-1102,-296,-56
1657304694775,-1103,219,75
1657304694815,-1227,76,156
1657304694855,-1332,-711,127
1657304694895,-1485,-1647,86
1657304694935,-1331,-2046,-81
1657304694975,-793,-1998,-107
1657304695015,-541,-1566,103
1657304695055,-177,-1259,-6
1657304695095,303,-898,-95
1657304695135,393,-656,-72
1657304695175,398,-586,36
1657304695215,578,-955,45
1657304695255,747,-1134,40
1657304695295,-502,-1924,29
1657304695335,-951,-1870,214
1657304695375,-980,-1558,332
1657304695415,-1087,-1136,157
1657304695455,-1073,-708,-28
1657304695495,-1061,-233,-184
1657304695535,-1231,-58,-213
1657304695575,-1176,-25,-63
1657304695615,-1054,-566,40
1657304695655,-1297,-1525,4
1657304695695,-1395,-2046,78
1657304695735,-1012,-2046,290
1657304695775,-457,-1956,262
1657304695815,53,-1330,145
1657304695855,346,-821,11
1657304695895,408,-514,-34
1657304695935,223,-382,-38
1657304695975,12,-526,11
1657304696015,403,-1227,-124
1657304696055,-134,-1826,-70
1657304696095,-1534,-2032,286
1657304696135,-1106,-1268,137
1657304696175,-1033,-859,-118
1657304696215,-1015,-361,-143
1657304696255,-963,8,-27
1657304696295,-1038,368,50
1657304696335,-1004,466,112
1657304696375,-952,185,219
1657304696415,-1293,-515,301
1657304696455,-2048,-1792,7
1657304696495,-1571,-1910,-47
1657304696535,-791,-1525,73
1657304696575,-371,-1136,1
1657304696615,-135,-844,-122
1657304696655,-103,-566,-234
1657304696695,-229,-435,-132
1657304696735,-406,-675,-26
1657304696775,-440,-1014,-153
1657304696815,-1573,-1015,-301
1657304696855,-1591,-635,273
1657304696895,-1140,0,275
1657304696935,-1063,244,148
1657304696975,-949,437,69
1657304697015,-619,590,-25
1657304697055,-501,439,-128
1657304697095,-628,320,-175
1657304697135,-1797,551,153
1657304697175,-2048,380,652
1657304697215,-2048,-390,993
1657304697255,-1006,-360,609
1657304697295,-359,-342,349
1657304697335,-117,-357,295
1657304697375,-86,-382,168
1657304697415,-76,-407,267
1657304697455,-138,-173,71
1657304697495,-1001,-223,41
1657304697535,-2048,85,1903
1657304697575,-1600,506,1257
1657304697615,-556,981,903
1657304697655,-602,1020,546
1657304697695,-564,898,394
1657304697735,-395,594,424
1657304697775,-35,458,350
1657304697815,35,1238,953
1657304697855,-232,1166,1481
1657304697895,-680,515,1549
1657304697935,-204,176,920
1657304697975,-29,129,299
1657304698015,-197,-11,171
1657304698055,-318,-207,163
1657304698095,-315,-247,-50
1657304698135,-843,282,184
1657304698175,-1461,191,2046
1657304698215,-581,-63,2046
1657304698255,-190,523,1548
1657304698295,-293,552,237
1657304698335,-84,455,-30
1657304698375,424,317,-45
1657304698415,577,330,5
1657304698455,413,372,156
1657304698495,-54,1243,201
1657304698535,-1778,1353,2041
1657304698575,-1836,232,2046
1657304698615,56,241,1761
1657304698655,-158,223,438
1657304698695,-290,83,143
1657304698735,-168,-126,77
1657304698775,15,-222,70
1657304698815,-236,58,-256
1657304698855,-1438,338,719
1657304698895,-1058,-55,2046
1657304698935,-131,322,1938
1657304698975,-168,514,892
1657304699015,-134,564,123
1657304699055,-319,504,257
1657304699095,-271,460,563
1657304699135,-200,561,547
1657304699175,-653,1254,1458
1657304699215,-1280,950,2046
1657304699255,-1397,-159,2046
1657304699295,-1154,-287,938
1657304699335,-285,-227,303
1657304699375,-136,-348,-74
1657304699415,-106,-556,135
1657304699455,-109,-478,62
1657304699495,-178,-92,4
1657304699535,-1374,6,612
1657304699575,-1967,-64,1600
1657304699615,-1315,371,1639
1657304699655,-733,583,962
1657304699695,-351,736,613
1657304699735,-170,543,292
1657304699775,-206,402,213
1657304699815,-70,349,377
1657304699855,-160,917,441
1657304699895,-1356,1169,1682
1657304699935,-2048,338,2046
1657304699975,-905,70,1224
1657304700015,-306,10,346
1657304700055,-287,14,-20
1657304700095,-220,-143,-66
1657304700135,-114,-301,28
1657304700175,-76,-245,66
1657304700215,-1194,74,306
1657304700255,-2048,521,2046
1657304700295,-1463,898,1604
1657304700335,-620,756,378
1657304700375,-229,794,-244
1657304700415,-203,427,-437
1657304700455,-62,352,-149
1657304700495,-120,375,6
1657304700535,-345,740,307
1657304700575,-1643,1581,909
1657304700615,-2048,1292,1624
1657304700655,-1199,497,1176
1657304700695,-373,127,498
1657304700735,-143,5,154
1657304700775,-401,-299,77
1657304700815,115,-404,105
1657304700855,-200,135,-141
1657304700895,-712,59,268
1657304700935,-2048,404,1070
1657304700975,-2020,1678,1585
1657304701015,-1071,1129,758
1657304701055,-436,586,15
1657304701095,-121,424,-174
1657304701135,85,746,-98
1657304701175,30,602,-188
1657304701215,-585,909,-15
1657304701255,-1459,1907,10
1657304701295,-1969,1736,2003
1657304701335,-1141,819,1413
1657304701375,-225,359,1069
1657304701415,-51,-138,491
1657304701455,-170,-58,44
1657304701495,-208,-301,260
1657304701535,-284,-285,960
1657304701575,-136,490,1146
1657304701615,-95,1122,697
1657304701655,-249,1173,1398
1657304701695,-199,1163,703
1657304701735,-87,963,283
1657304701775,-105,681,91
1657304701815,-41,503,-3
1657304701855,191,386,254
1657304701895,203,452,13
1657304701935,-56,954,-70
1657304701975,-65,2043,137
1657304702015,-239,1813,315
1657304702055,-265,1204,128
1657304702095,-444,1025,-18
1657304702135,6,-55,105
1657304702175,-413,32,-17
1657304702215,-559,-298,-88
1657304702255,-359,-246,-191
1657304702295,-2048,-662,195
1657304702335,-2048,944,1790
1657304702375,-1227,1023,586
1657304702415,-620,865,-7
1657304702455,-582,601,-251
1657304702495,-232,253,-439
1657304702535,-67,298,-256
1657304702575,-300,289,-150
1657304702615,-270,942,-50
1657304702655,-1553,2047,757
1657304702695,-1893,1188,2046
1657304702735,-1048,488,1334
1657304702775,-350,90,520
1657304702815,-147,-54,231
1657304702855,-163,-160,35
1657304702895,-125,-241,-37
1657304702935,-57,-214,22
1657304702975,-879,-176,111
1657304703015,-2048,157,1178
1657304703055,-1868,432,1924
1657304703095,-676,603,976
1657304703135,-317,745,344
1657304703175,-380,517,5
1657304703215,-242,349,-165
1657304703255,-96,456,82
1657304703295,-811,725,589
1657304703335,-1676,994,1048
1657304703375,-2048,84,1301
1657304703415,-1447,-355,478
1657304703455,-675,-406,-62
1657304703495,-328,-433,-77
1657304703535,-236,-414,259
1657304703575,-509,-490,-5
1657304703615,-511,-374,-32
1657304703655,-821,-255,-125
1657304703695,-2048,-668,-105
1657304703735,-2048,-520,918
1657304703775,-1327,-89,707
1657304703815,-684,277,360
1657304703855,-358,413,177
1657304703895,-302,292,150
1657304703935,-245,220,307
1657304703975,-155,301,160
1657304704015,-359,869,589
1657304704055,-2048,-636,1216
1657304704095,-2048,-474,991
1657304704135,-916,-224,176
1657304704175,-358,-175,130
1657304704215,-94,-119,7
1657304704255,-15,-183,-88
1657304704295,-87,-274,-186
1657304704335,-639,-298,-254
1657304704375,-2048,-868,420
1657304704415,-2048,-248,1251
1657304704455,-1292,268,688
1657304704495,-670,442,389
1657304704535,-500,482,105
1657304704575,-279,367,151
1657304704615,-89,386,317
1657304704655,-401,252,311
1657304704695,-853,504,868
1657304704735,-1953,558,1218
1657304704775,-2048,-241,926
1657304704815,-1407,-262,352
1657304704855,-408,-192,164
1657304704895,-268,-207,293
1657304704935,-95,-206,115
1657304704975,-43,-203,-68
1657304705015,-357,-191,-126
1657304705055,-1197,-164,80
1657304705095,-2048,-589,820
1657304705135,-2015,-129,1116
1657304705175,-1067,194,614
1657304705215,-599,413,331
1657304705255,-348,431,150
1657304705295,-112,347,151
1657304705335,-237,268,143
1657304705375,-420,294,208
1657304705415,-1095,770,1319
1657304705455,-2048,105,1330
1657304705495,-2048,-235,946
1657304705535,-782,-125,462
1657304705575,-329,-38,133
1657304705615,-237,-109,-36
1657304705655,-345,-230,20
1657304705695,-362,-220,39
1657304705735,-638,-237,14
1657304705775,-1783,-462,529
1657304705815,-2048,-341,925
1657304705855,-1585,-86,955
1657304705895,-931,92,481
1657304705935,-493,335,161
1657304705975,-286,336,176
1657304706015,-196,343,343
1657304706055,-412,363,462
1657304706095,-799,591,657
1657304706135,-2048,535,1285
1657304706175,-2048,-136,1253
1657304706215,-1443,-160,529
1657304706255,-707,-262,236
1657304706295,-275,-232,22
1657304706335,-72,-206,-199
1657304706375,-322,-371,-100
1657304706415,-446,-391,-116
1657304706455,-913,-320,-212
1657304706495,-2048,-442,124
1657304706535,-2048,-222,796
1657304706575,-1531,99,616
1657304706615,-799,436,346
1657304706655,-542,507,319
1657304706695,-384,385,259
1657304706735,-267,288,259
1657304706775,-200,270,116
1657304706815,-500,796,420
1657304706855,-2048,483,1257
1657304706895,-2048,-477,800
1657304706935,-1465,-196,373
1657304706975,-470,-95,157
1657304707015,-248,-51,-13
1657304707055,-251,-184,-154
1657304707095,-67,-245,-124
1657304707135,13,-193,-171
1657304707175,-175,-96,-317
1657304707215,-2048,-377,42
1657304707255,-2048,-40,1018
1657304707295,-1154,443,328
1657304707335,-534,472,9
1657304707375,-49,516,-226
1657304707415,109,378,-137
1657304707455,-81,366,132
1657304707495,-788,207,270
1657304707535,-1680,510,691
1657304707575,-2048,821,1113
1657304707615,-2048,138,831
1657304707655,-1320,-35,529
1657304707695,-526,-93,215
1657304707735,-234,-125,-13
1657304707775,-132,-256,-172
1657304707815,-70,-350,-192
1657304707855,-191,-272,-198
1657304707895,-1575,-450,65
1657304707935,-2048,-426,785
1657304707975,-2001,-2,928
1657304708015,-1153,217,506
1657304708055,-681,450,193
1657304708095,-584,306,157
1657304708135,-247,342,240
1657304708175,-153,316,273
1657304708215,-344,363,425
1657304708255,-1422,731,1058
1657304708295,-2048,308,1404
1657304708335,-2048,-208,478
1657304708375,-856,-250,108
1657304708415,-262,-278,88
1657304708455,-49,-182,-43
1657304708495,-209,-296,77
1657304708535,-162,-231,34
1657304708575,-476,-206,-85
1657304708615,-1421,-291,-73
1657304708655,-2048,-553,892
1657304708695,-2039,15,846
1657304708735,-1031,284,437
1657304708775,-691,418,224
1657304708815,-410,429,190
1657304708855,-224,408,159
1657304708895,-212,286,84
1657304708935,-596,631,396
1657304708975,-1777,775,1156
1657304709015,-2048,8,1104
1657304709055,-1631,-260,842
1657304709095,-693,-250,492
1657304709135,-268,-210,287
1657304709175,-256,-230,88
1657304709215,-173,-201,78
1657304709255,-142,-217,-40
1657304709295,-823,-280,-126
1657304709335,-2048,-412,740
1657304709375,-2048,-407,1555
1657304709415,-1206,45,998
1657304709455,-839,406,159
1657304709495,-567,511,-124
1657304709535,-527,352,-36
1657304709575,-324,237,100
1657304709615,-17,318,272
1657304709655,-533,713,689
1657304709695,-2048,239,1120
1657304709735,-2048,-7,1481
1657304709775,-1310,-92,703
1657304709815,-698,-262,191
1657304709855,-136,-124,65
1657304709895,-203,-254,119
1657304709935,-366,-549,193
1657304709975,-899,-735,421
1657304710015,-1057,-527,309
1657304710055,-1639,-351,609
1657304710095,-1672,-20,1018
1657304710135,-1333,208,862
1657304710175,-841,420,476
1657304710215,-414,550,247
1657304710255,-340,503,198
1657304710295,-142,393,159
1657304710335,-172,366,216
1657304710375,-804,948,926
1657304710415,-2048,98,1884
1657304710455,-2046,256,1380
1657304710495,-1069,-79,1136
1657304710535,-418,-43,202
1657304710575,-217,-53,-111
1657304710615,-106,-148,-132
1657304710655,-87,-214,124
1657304710695,-5,-102,98
1657304710735,-1501,-49,512
1657304710775,-2048,320,1249
1657304710815,-1698,704,1142
1657304710855,-865,682,580
1657304710895,-619,598,429
1657304710935,-539,362,333
1657304710975,-310,323,289
1657304711015,-254,431,130
1657304711055,14,570,-9
1657304711095,-1009,1629,449
1657304711135,-2048,1559,1102
1657304711175,-1704,1087,937
1657304711215,-725,341,420
1657304711255,-312,153,101
1657304711295,-239,33,41
1657304711335,-108,-158,208
1657304711375,-158,-142,141
1657304711415,-252,-107,-38
1657304711455,-1824,237,397
1657304711495,-2048,420,1454
1657304711535,-1662,534,750
1657304711575,-932,501,127
1657304711615,-662,500,-117
1657304711655,-474,329,-154
1657304711695,-208,337,-109
1657304711735,-46,380,33
1657304711775,-17,770,-45
1657304711815,-1791,1631,918
1657304711855,-2048,1214,1863
1657304711895,-1383,172,1668
1657304711935,-290,-37,676
1657304711975,-61,-64,81
1657304712015,5,-173,-85
1657304712055,253,-444,-178
1657304712095,222,-297,-138
1657304712135,-687,0,301
1657304712175,-2048,-138,1808
1657304712215,-1989,366,1685
1657304712255,-1136,587,861
1657304712295,-861,606,483
1657304712335,-671,519,153
1657304712375,-315,405,-24
1657304712415,-51,462,140
1657304712455,110,575,405
1657304712495,14,709,253
1657304712535,-1336,1731,732
1657304712575,-2048,1328,1752
1657304712615,-1935,507,1301
1657304712655,-674,2,596
1657304712695,-193,-135,214
1657304712735,-149,-194,61
1657304712775,-297,-410,-76
1657304712815,-173,-347,-233
1657304712855,-198,-218,-155
1657304712895,-626,119,131
1657304712935,-2048,-204,733
1657304712975,-2048,-95,898
1657304713015,-1682,199,696
1657304713055,-1065,324,129
1657304713095,-802,463,-64
1657304713135,-616,455,6
1657304713175,-437,569,56
1657304713215,-309,615,101
1657304713255,-810,664,163
1657304713295,-2005,732,547
1657304713335,-2048,316,1149
1657304713375,-1500,115,851
1657304713415,-596,-61,570
1657304713455,-283,-59,229
1657304713495,-262,-140,89
1657304713535,-243,-241,39
1657304713575,-157,-238,-28
1657304713615,-471,-206,-233
1657304713655,-2048,-160,374
1657304713695,-2048,54,1042
1657304713735,-1461,395,770
1657304713775,-859,427,279
1657304713815,-659,443,-43
1657304713855,-529,291,-380
1657304713895,-170,244,179
1657304713935,-32,418,271
1657304713975,-169,767,170
1657304714015,-1670,1143,853
1657304714055,-2048,346,1385
1657304714095,-1991,-216,1081
1657304714135,-900,-308,451
1657304714175,-262,-192,196
1657304714215,-117,-91,-44
1657304714255,-48,-112,-119
1657304714295,-151,-145,-37
1657304714335,-440,-192,-11
1657304714375,-1653,-404,409
1657304714415,-2048,-270,816
1657304714455,-1872,32,1131
1657304714495,-1192,290,901
1657304714535,-784,480,442
1657304714575,-517,514,210
1657304714615,-356,415,101
1657304714655,-195,349,115
1657304714695,-156,420,234
1657304714735,-494,1139,401
1657304714775,-2048,967,1415
1657304714815,-2048,144,1880
1657304714855,-1221,-239,933
1657304714895,-238,-317,284
1657304714935,-53,-248,4
1657304714975,-282,-404,-135
1657304715015,-14,-228,-208
1657304715055,-378,-108,-106
1657304715095,-1123,99,81
1657304715135,-2048,239,577
1657304715175,-2048,524,780
1657304715215,-1307,603,395
1657304715255,-907,578,113
1657304715295,-656,572,-68
1657304715335,-458,514,-58
1657304715375,-298,434,42
1657304715415,-116,516,-62
1657304715455,-845,1357,421
1657304715495,-2048,1142,1042
1657304715535,-2017,641,1114
1657304715575,-1110,240,614
1657304715615,-643,-83,172
1657304715655,-488,-268,26
1657304715695,-316,-385,33
1657304715735,-213,-498,111
1657304715775,60,-161,-174
1657304715815,-1008,217,-201
1657304715855,-2048,271,1355
1657304715895,-1682,792,741
1657304715935,-961,667,282
1657304715975,-757,422,6
1657304716015,-547,413,-183
1657304716055,-322,452,14
1657304716095,-66,489,260
1657304716135,-72,563,269
1657304716175,-1152,1465,695
1657304716215,-2048,316,1514
1657304716255,-2048,10,856
1657304716295,-680,-26,345
1657304716335,-197,-77,174
1657304716375,-70,-91,5
1657304716415,-25,-179,34
1657304716455,-131,-252,119
1657304716495,-374,-230,99
1657304716535,-1156,-60,152
1657304716575,-2048,176,523
1657304716615,-2048,283,879
1657304716655,-1252,524,754
1657304716695,-675,556,345
1657304716735,-314,548,68
1657304716775,-185,389,-18
1657304716815,-70,405,52
1657304716855,51,384,38
1657304716895,-378,1140,147
1657304716935,-2048,1089,1367
1657304716975,-2048,424,1402
1657304717015,-1154,16,592
1657304717055,-306,-138,243
1657304717095,-74,-156,7
1657304717135,-37,-223,-96
1657304717175,-27,-242,-18
1657304717215,6,-267,-29
1657304717255,-390,-277,-191
1657304717295,-2048,5,1278
1657304717335,-2048,224,1483
1657304717375,-1244,463,773
1657304717415,-912,466,394
1657304717455,-319,495,121
1657304717495,-254,269,-293
1657304717535,-281,175,-298
1657304717575,-47,272,-73
1657304717615,-351,1170,-47
1657304717655,-2048,1192,865
1657304717695,-2048,408,867
1657304717735,-1346,0,514
1657304717775,-391,-64,278
1657304717815,-135,-67,108
1657304717855,-100,-138,69
1657304717895,-115,-231,120
1657304717935,-313,-278,111
1657304717975,-1458,-31,316
1657304718015,-2048,352,855
1657304718055,-2048,478,825
1657304718095,-1198,481,238
1657304718135,-775,419,-108
1657304718175,-489,356,-217
1657304718215,-258,362,-126
1657304718255,-212,457,105
1657304718295,-198,563,94
1657304718335,-665,1154,43
1657304718375,-1847,1352,500
1657304718415,-2048,828,778
1657304718455,-1363,220,395
1657304718495,-727,-172,189
1657304718535,-543,-273,194
1657304718575,-329,-213,60
1657304718615,-431,-181,110
1657304718655,-554,-157,167
1657304718695,-1405,-151,309
1657304718735,-1635,177,422
1657304718775,-2036,26,737
1657304718815,-1280,475,681
1657304718855,-880,655,530
1657304718895,-611,642,262
1657304718935,-571,491,153
1657304718975,-385,550,-15
1657304719015,-267,474,-9
1657304719055,-653,740,34
1657304719095,-2048,977,812
1657304719135,-2048,317,1220
1657304719175,-1478,49,721
1657304719215,-548,-92,455
1657304719255,-179,-174,162
1657304719295,-96,-228,56
1657304719335,63,-122,121
1657304719375,-25,-125,91
1657304719415,-738,-175,20
1657304719455,-2048,58,540
1657304719495,-2048,214,1142
1657304719535,-1428,371,883
1657304719575,-514,553,454
1657304719615,-633,562,-107
1657304719655,-1359,12,-844
1657304719695,-278,305,-182
1657304719735,116,372,210
1657304719775,-217,1004,266
1657304719815,-1553,1336,864
1657304719855,-2031,1206,1394
1657304719895,-1236,434,1217
1657304719935,-507,256,294
1657304719975,-378,33,-26
1657304720015,-237,89,-94
1657304720055,-289,-273,54
1657304720095,-206,-506,206
1657304720135,-540,-80,515
1657304720175,-1512,20,556
1657304720215,-2048,767,1174
1657304720255,-2048,758,1359
1657304720295,-616,733,560
1657304720335,-222,828,310
1657304720375,-290,533,-314
1657304720415,-327,533,-159
1657304720455,-167,234,-79
1657304720495,-342,576,48
1657304720535,-872,1997,-114
1657304720575,-1339,2047,642
1657304720615,-961,1691,1139
1657304720655,-302,656,618
1657304720695,-143,160,360
1657304720735,-155,-3,305
1657304720775,-83,-65,291
1657304720815,458,-711,371
1657304720855,-76,-967,-64
1657304720895,-456,-726,56
1657304720935,-2048,-25,1970
1657304720975,-2048,742,1869
1657304721015,-1603,651,813
1657304721055,-1008,456,323
1657304721095,-604,404,-15
1657304721135,-436,331,-4
1657304721175,-236,347,-3
1657304721215,59,265,-19
1657304721255,-361,481,-504
1657304721295,-2048,1165,527
1657304721335,-2048,1617,1479
1657304721375,-1131,664,797
1657304721415,-521,-11,393
1657304721455,-205,-47,259
1657304721495,-90,-86,262
1657304721535,42,-238,286
1657304721575,75,-311,164
1657304721615,-286,-462,-218
1657304721655,-2048,386,1506
1657304721695,-2048,1511,1273
1657304721735,-1100,1023,608
1657304721775,-720,729,253
1657304721815,-523,399,-170
1657304721855,-340,332,-50
1657304721895,-225,293,-41
1657304721935,-277,328,-11
1657304721975,-433,830,-367
1657304722015,-2027,1380,221
1657304722055,-1912,2045,1500
1657304722095,-542,1278,1089
1657304722135,-151,368,603
1657304722175,-274,-28,149
1657304722215,-288,-227,66
1657304722255,-29,-98,491
1657304722295,-202,-233,428
1657304722335,-733,28,333
1657304722375,-1401,565,2046
1657304722415,-464,810,2046
1657304722455,-573,712,1472
1657304722495,-537,590,1153
1657304722535,-517,595,396
1657304722575,-130,443,267
1657304722615,-99,590,109
1657304722655,29,716,-111
1657304722695,-201,1376,676
1657304722735,-564,1353,1385
1657304722775,-850,919,2046
1657304722815,-532,265,1515
1657304722855,-352,186,372
1657304722895,-283,168,-189
1657304722935,-424,-142,-21
1657304722975,-585,108,542
1657304723015,-534,465,807
1657304723055,-901,772,838
1657304723095,-633,1021,1633
1657304723135,183,986,1319
1657304723175,49,790,416
1657304723215,-323,705,70
1657304723255,-208,538,265
1657304723295,14,302,106
1657304723335,-16,262,99
1657304723375,238,1030,448
1657304723415,382,1829,406
1657304723455,170,1845,425
1657304723495,-161,1416,461
1657304723535,99,850,450
1657304723575,110,591,221
1657304723615,-178,315,160
1657304723655,-242,53,306
1657304723695,-77,-214,310
1657304723735,-177,82,181
1657304723775,-596,1401,238
1657304723815,-633,1553,2046
1657304723855,-231,1359,1831
1657304723895,-230,1046,424
1657304723935,-275,557,-69
1657304723975,-341,458,-136
1657304724015,-607,538,148
1657304724055,-530,606,271
1657304724095,-366,1015,128
1657304724135,-1527,1677,1334
1657304724175,-1997,976,2046
1657304724215,-970,74,1986
1657304724255,-384,-240,857
1657304724295,-210,-228,130
1657304724335,-71,-107,-187
1657304724375,0,-167,-87
1657304724415,36,-258,139
1657304724455,182,-382,-61
1657304724495,-1280,-355,81
1657304724535,-2048,-287,2046
1657304724575,-2013,49,1258
1657304724615,-933,451,414
1657304724655,-591,580,-55
1657304724695,-391,608,-201
1657304724735,-343,396,-38
1657304724775,-106,344,39
1657304724815,-523,706,-9
1657304724855,-2048,957,1028
1657304724895,-2048,203,1188
1657304724935,-1654,-42,690
1657304724975,-610,-136,433
1657304725015,-268,-173,167
1657304725055,-162,-226,14
1657304725095,-68,-308,-14
1657304725135,-4,-337,-83
1657304725175,-146,-244,-261
1657304725215,-2048,-283,179
1657304725255,-2048,-32,1105
1657304725295,-1379,300,659
1657304725335,-798,455,178
1657304725375,-658,453,44
1657304725415,-405,382,-8
1657304725455,-142,425,95
1657304725495,-179,609,184
1657304725535,-1374,1028,570
1657304725575,-2048,390,896
1657304725615,-2048,-28,1032
1657304725655,-1018,-208,513
1657304725695,-262,-92,196
1657304725735,-116,-45,83
1657304725775,-80,-83,60
1657304725815,-67,-209,50
1657304725855,-259,-293,13
1657304725895,-1203,-433,173
1657304725935,-2048,-117,889
1657304725975,-1925,10,1121
1657304726015,-1235,349,513
1657304726055,-788,457,106
1657304726095,-673,367,-47
1657304726135,-685,197,0
1657304726175,-277,306,-20
1657304726215,-397,576,0
1657304726255,-1270,1163,105
1657304726295,-2048,753,775
1657304726335,-2048,-244,1107
1657304726375,-1269,-666,690
1657304726415,-242,-472,229
1657304726455,71,-271,-9
1657304726495,-33,-287,-167
1657304726535,-139,-291,-186
1657304726575,-451,-405,-194
1657304726615,-1284,-147,-150
1657304726655,-2048,104,587
1657304726695,-2048,81,702
1657304726735,-1219,303,398
1657304726775,-700,431,75
1657304726815,-735,353,-49
1657304726855,-367,544,-49
1657304726895,-105,676,204
1657304726935,-278,665,205
1657304726975,-1889,960,563
1657304727015,-2048,808,826
1657304727055,-2038,-60,585
1657304727095,-696,-94,241
1657304727135,-346,-70,183
1657304727175,-280,-146,87
1657304727215,-190,-247,70
1657304727255,-113,-293,64
1657304727295,-517,-401,-20
1657304727335,-2048,-38,389
1657304727375,-2048,134,718
1657304727415,-1782,380,633
1657304727455,-993,361,222
1657304727495,-583,417,-113
1657304727535,-530,400,-34
1657304727575,-365,442,94
1657304727615,-150,474,81
1657304727655,-258,668,18
1657304727695,-1940,1100,772
1657304727735,-2048,305,1121
1657304727775,-1661,-73,672
1657304727815,-556,-76,655
1657304727855,-188,-4,475
1657304727895,-248,-85,214
1657304727935,-324,-215,31
1657304727975,-351,-282,-178
1657304728015,-706,-355,-141
1657304728055,-1940,-34,735
1657304728095,-2048,170,1414
1657304728135,-1366,263,852
1657304728175,-995,444,236
1657304728215,-671,407,59
1657304728255,-478,388,-131
1657304728295,-287,513,-22
1657304728335,-147,505,40
1657304728375,-489,671,145
1657304728415,-1476,1222,566
1657304728455,-2048,790,788
1657304728495,-1671,409,443
1657304728535,-1049,66,154
1657304728575,-830,-314,70
1657304728615,-535,-332,-79
1657304728655,-428,-174,150
1657304728695,-404,-149,376
1657304728735,-603,-203,341
1657304728775,-1071,36,285
1657304728815,-1931,244,692
1657304728855,-1845,311,755
1657304728895,-1370,421,399
1657304728935,-849,437,79
1657304728975,-607,443,-50
1657304729015,-418,491,-2
1657304729055,-290,545,137
1657304729095,-348,598,82
1657304729135,-1228,1031,554
1657304729175,-2048,839,970
1657304729215,-2048,242,1305
1657304729255,-1040,25,795
1657304729295,-510,-79,301
1657304729335,-300,-109,132
1657304729375,-126,-182,68
1657304729415,67,-363,77
1657304729455,-54,-357,41
1657304729495,-510,-336,-74
1657304729535,-2048,-157,809
1657304729575,-2048,-117,1362
1657304729615,-1611,151,711
1657304729655,-961,178,105
1657304729695,-578,464,-51
1657304729735,-321,537,63
1657304729775,-188,534,240
1657304729815,31,524,192
1657304729855,-209,788,74
1657304729895,-1775,1220,950
1657304729935,-2048,353,1552
1657304729975,-1719,-185,994
1657304730015,-752,-251,276
1657304730055,-362,-143,2
1657304730095,-300,-157,-24
1657304730135,-176,-200,100
1657304730175,-2,-186,54
1657304730215,12,-269,-200
1657304730255,-2048,-519,587
1657304730295,-2048,-427,1624
1657304730335,-1616,61,1033
1657304730375,-1144,282,491
1657304730415,-645,409,135
1657304730455,-409,500,21
1657304730495,-356,598,113
1657304730535,-213,605,144
1657304730575,-537,766,135
1657304730615,-1602,1101,576
1657304730655,-2048,221,959
1657304730695,-1837,-117,737
1657304730735,-1005,-378,389
1657304730775,-409,-436,96
1657304730815,-198,-372,-47
1657304730855,-114,-301,4
1657304730895,-188,-370,82
1657304730935,-387,-373,-35
1657304730975,-1576,-507,112
1657304731015,-2048,-404,790
1657304731055,-1810,57,736
1657304731095,-1173,209,577
1657304731135,-627,421,356
1657304731175,-452,508,264
1657304731215,-578,530,254
1657304731255,-715,554,301
1657304731295,-913,726,471
1657304731335,-1676,709,863
1657304731375,-2048,272,1135
1657304731415,-1897,-42,1167
1657304731455,-1254,-425,835
1657304731495,-504,-466,274
1657304731535,-136,-370,21
1657304731575,-16,-304,5
1657304731615,-4,-384,81
1657304731655,-344,-351,86
1657304731695,-1483,-375,372
1657304731735,-1875,-194,862
1657304731775,-1685,167,998
1657304731815,-1233,232,886
1657304731855,-746,391,445
1657304731895,-567,436,194
1657304731935,-662,441,213
1657304731975,-690,510,296
1657304732015,-773,552,302
1657304732055,-1429,861,867
1657304732095,-1753,588,1219
1657304732135,-1863,12,1275
1657304732175,-1276,-377,1024
1657304732215,-698,-525,447
1657304732255,-324,-447,113
1657304732295,-167,-347,58
1657304732335,-88,-289,139
1657304732375,-177,-222,61
1657304732415,-1078,-268,75
1657304732455,-2048,-375,956
1657304732495,-1837,9,711
1657304732535,-1234,190,373
1657304732575,-912,412,291
1657304732615,-655,499,302
1657304732655,-459,605,302
1657304732695,-253,574,255
1657304732735,-355,694,243
1657304732775,-1551,914,911
1657304732815,-1980,626,930
1657304732855,-2020,194,987
1657304732895,-1164,-13,596
1657304732935,-519,-79,378
1657304732975,-287,-101,153
1657304733015,-189,-181,42
1657304733055,-86,-231,15
1657304733095,-31,-150,-135
1657304733135,-936,-114,-125
1657304733175,-2048,158,652
1657304733215,-2048,40,441
1657304733255,-856,124,-192
1657304733295,-363,250,-371
1657304733335,-323,350,-246
1657304733375,-326,352,104
1657304733415,-200,449,58
1657304733455,-252,477,-92
1657304733495,-1664,946,283
1657304733535,-2048,552,532
1657304733575,-2048,64,362
1657304733615,-951,14,296
1657304733655,-477,42,195
1657304733695,-290,11,118
1657304733735,-137,-98,75
1657304733775,-125,-261,72
1657304733815,-88,-348,-7
1657304733855,-920,-327,69
1657304733895,-2048,39,791
1657304733935,-2048,330,723
1657304733975,-1348,430,407
1657304734015,-776,420,53
1657304734055,-509,403,-102
1657304734095,-383,448,1
1657304734135,-164,472,33
1657304734175,60,538,-34
1657304734215,-594,1185,105
1657304734255,-2048,1054,1013
1657304734295,-2048,371,1048
1657304734335,-1280,-83,458
1657304734375,-466,-133,158
1657304734415,-199,-72,53
1657304734455,-144,-153,24
1657304734495,-67,-210,42
1657304734535,-76,-280,18
1657304734575,-887,-327,-25
1657304734615,-2048,22,1003
1657304734655,-2048,279,934
1657304734695,-1350,424,477
1657304734735,-943,452,210
1657304734775,-617,453,49
1657304734815,-364,462,32
1657304734855,-138,496,149
1657304734895,34,576,154
1657304734935,-885,995,288
1657304734975,-1914,1169,759
1657304735015,-2048,618,1271
1657304735055,-1389,229,1002
1657304735095,-864,-257,523
1657304735135,-403,-284,105
1657304735175,-159,-225,-14
1657304735215,-118,-280,58
1657304735255,-101,-343,3
1657304735295,-439,-230,-30
1657304735335,-2048,-338,873
1657304735375,-2002,127,1010
1657304735415,-1485,304,642
1657304735455,-940,397,353
1657304735495,-549,441,129
1657304735535,-494,477,125
1657304735575,-446,627,197
1657304735615,-410,682,161
1657304735655,-1248,910,591
1657304735695,-2045,895,1250
1657304735735,-2048,329,1484
1657304735775,-1506,-198,1221
1657304735815,-779,-496,559
1657304735855,-331,-460,176
1657304735895,-124,-361,12
1657304735935,-69,-338,-8
1657304735975,-96,-463,-96
1657304736015,-236,-525,-308
1657304736055,-2048,-579,664
1657304736095,-2048,-268,892
1657304736135,-1529,131,397
1657304736175,-1024,292,264
1657304736215,-672,452,195
1657304736255,-507,534,195
1657304736295,-371,640,200
1657304736335,-331,715,47
1657304736375,-955,966,206
1657304736415,-2048,963,906
1657304736455,-2048,212,1249
1657304736495,-1630,-186,901
1657304736535,-946,-537,339
1657304736575,-268,-399,49
1657304736615,-62,-349,-70
1657304736655,0,-305,-51
1657304736695,48,-435,23
1657304736735,-12,-471,-72
1657304736775,-1561,-941,156
1657304736815,-2048,-779,621
1657304736855,-2048,-291,118
1657304736895,-1534,-36,-10
1657304736935,-989,312,70
1657304736975,-756,474,74
1657304737015,-579,456,8
1657304737055,-340,379,-59
1657304737095,-850,417,67
1657304737135,-1812,461,343
1657304737175,-2048,289,504
1657304737215,-2048,-342,537
1657304737255,-1270,-518,386
1657304737295,-539,-503,98
1657304737335,-201,-338,-16
1657304737375,-86,-353,-9
1657304737415,-28,-582,72
1657304737455,51,-567,-114
1657304737495,-1038,-802,-213
1657304737535,-2048,-839,518
1657304737575,-2048,-208,471
1657304737615,-1596,64,417
1657304737655,-1039,371,310
1657304737695,-653,500,166
1657304737735,-529,568,202
1657304737775,-430,585,187
1657304737815,-963,447,248
1657304737855,-1712,544,656
1657304737895,-2048,279,1113
1657304737935,-2048,-496,946
1657304737975,-1429,-678,508
1657304738015,-652,-693,25
1657304738055,-189,-436,-96
1657304738095,-71,-303,-73
1657304738135,-43,-513,-43
1657304738175,-135,-651,-34
1657304738215,523,-573,-330
1657304738255,-2048,-1363,240
1657304738295,-2048,-843,833
1657304738335,-1981,-236,429
1657304738375,-1370,18,197
1657304738415,-802,444,124
1657304738455,-672,501,-129
1657304738495,-626,875,-83
1657304738535,-472,915,93
1657304738575,-1714,396,353
1657304738615,-2048,158,798
1657304738655,-2048,-721,955
1657304738695,-1293,-781,650
1657304738735,-446,-499,384
1657304738775,-11,-327,217
1657304738815,165,-238,-6
1657304738855,129,-171,-25
1657304738895,83,-164,-76
1657304738935,81,-274,-351
1657304738975,427,-276,-623
1657304739015,-2048,-2046,807
1657304739055,-2048,-767,242
1657304739095,-1469,-269,-143
1657304739135,-800,91,-563
1657304739175,-725,109,-271
1657304739215,-574,334,7
1657304739255,-266,518,32
1657304739295,-7,728,-6
1657304739335,-98,909,9
1657304739375,-2048,-364,840
1657304739415,-2048,-297,2046
1657304739455,-1999,-442,1871
1657304739495,-414,-683,563
1657304739535,225,-306,71
1657304739575,380,126,133
1657304739615,193,96,212
1657304739655,145,-130,193
1657304739695,54,-280,51
1657304739735,-41,-944,-64
1657304739775,-2048,-567,1725
1657304739815,-2048,1262,2020
1657304739855,-1245,714,371
1657304739895,-958,330,-108
1657304739935,-627,488,-221
1657304739975,-258,766,-364
1657304740015,-198,818,-322
1657304740055,-180,357,-212
1657304740095,-347,162,-620
1657304740135,-2048,740,897
1657304740175,-2048,935,1623
1657304740215,-1179,371,1105
1657304740255,-392,-163,478
1657304740295,9,-115,103
1657304740335,-159,0,148
1657304740375,-130,57,167
1657304740415,-150,1,108
1657304740455,-63,-14,-50
1657304740495,40,-580,-107
1657304740535,-2048,233,2046
1657304740575,-2048,1133,1775
1657304740615,-1099,512,456
1657304740655,-1138,573,293
1657304740695,-824,233,-352
1657304740735,-710,147,-245
1657304740775,-394,283,-307
1657304740815,-197,268,-290
1657304740855,-49,173,-392
1657304740895,-756,538,-569
1657304740935,-2048,862,730
1657304740975,-2048,219,790
1657304741015,-1100,-93,476
1657304741055,-527,-298,320
1657304741095,-255,-442,61
1657304741135,-128,-180,201
1657304741175,-25,-156,183
1657304741215,132,-16,93
1657304741255,267,-134,-77
1657304741295,-1684,-503,501
1657304741335,-2048,363,1215
1657304741375,-2048,334,519
1657304741415,-1085,-3,-86
1657304741455,-631,33,-382
1657304741495,-413,200,-320
1657304741535,-158,296,-299
1657304741575,-69,329,-225
1657304741615,-559,426,-56
1657304741655,-2042,1017,136
1657304741695,-2048,1421,973
1657304741735,-2048,355,1071
1657304741775,-994,-15,620
1657304741815,-249,6,555
1657304741855,44,7,492
1657304741895,-42,-298,139
1657304741935,20,-402,-17
1657304741975,154,-440,-45
1657304742015,149,-276,-89
1657304742055,-2048,-316,1023
1657304742095,-2048,-540,1226
1657304742135,-1916,-145,331
1657304742175,-974,-167,-320
1657304742215,-859,-54,-264
1657304742255,-618,377,-5
1657304742295,-319,475,66
1657304742335,-49,314,-63
1657304742375,-582,628,-514
1657304742415,-2048,1052,64
1657304742455,-2048,491,915
1657304742495,-1435,122,529
1657304742535,-595,-268,122
1657304742575,-435,-419,-35
1657304742615,-184,-388,-74
1657304742655,-61,-262,99
1657304742695,13,-331,116
1657304742735,-255,-327,-84
1657304742775,-2048,106,545
1657304742815,-2048,547,591
1657304742855,-1637,736,212
1657304742895,-1091,464,-89
1657304742935,-915,112,-401
1657304742975,-798,-657,-686
1657304743015,-290,-1,-146
1657304743055,64,29,-173
1657304743095,-223,627,-344
1657304743135,-1130,1574,-285
1657304743175,-2048,1668,371
1657304743215,-2048,1098,442
1657304743255,-1262,104,209
1657304743295,-585,-131,116
1657304743335,-98,-47,-58
1657304743375,-49,-62,86
1657304743415,-59,-87,194
1657304743455,101,-327,-33
1657304743495,-277,-377,-198
1657304743535,-2048,107,1083
1657304743575,-2048,668,1048
1657304743615,-1733,498,295
1657304743655,-871,321,-97
1657304743695,-602,358,-216
1657304743735,-846,312,-47
1657304743775,-326,470,-151
1657304743815,-56,483,-208
1657304743855,-307,852,-473
1657304743895,-1945,1335,88
1657304743935,-2048,1074,618
1657304743975,-1708,599,559
1657304744015,-711,118,271
1657304744055,-275,-47,209
1657304744095,103,-110,-46
1657304744135,181,-188,71
1657304744175,112,-192,244
1657304744215,-501,-126,-5
1657304744255,-2048,532,1018
1657304744295,-2048,1336,958
1657304744335,-1220,925,299
1657304744375,-731,536,-181
1657304744415,-299,375,-277
1657304744455,-20,227,-227
1657304744495,86,246,-16
1657304744535,178,366,-45
1657304744575,32,533,-178
1657304744615,-1506,1556,-32
1657304744655,-2048,2034,609
1657304744695,-2048,1635,901
1657304744735,-879,659,696
1657304744775,-350,-37,482
1657304744815,-145,-264,178
1657304744855,-20,-297,158
1657304744895,229,-176,99
1657304744935,193,-267,0
1657304744975,-303,-115,-89
1657304745015,-2048,749,1655
1657304745055,-2048,963,1270
1657304745095,-1474,481,168
1657304745135,-948,337,-217
1657304745175,-583,354,-232
1657304745215,-262,355,-158
1657304745255,-110,353,-32
1657304745295,102,405,-120
1657304745335,-745,1091,-43
1657304745375,-2048,1320,416
1657304745415,-2048,1096,677
1657304745455,-1572,488,249
1657304745495,-701,108,112
1657304745535,-155,-37,52
1657304745575,113,-147,155
1657304745615,247,-321,311
1657304745655,266,-433,316
1657304745695,379,-479,-9
1657304745735,-2048,-180,1200
1657304745775,-2048,692,1378
1657304745815,-2048,702,779
1657304745855,-1192,534,297
1657304745895,-594,401,-28
1657304745935,-312,393,-187
1657304745975,-260,427,-88
1657304746015,-122,528,-46
1657304746055,-400,610,-88
1657304746095,-1354,1312,123
1657304746135,-1768,1287,286
1657304746175,-1959,947,496
1657304746215,-1298,413,469
1657304746255,-931,-109,484
1657304746295,-595,-288,390
1657304746335,-372,-287,345
1657304746375,-207,-237,287
1657304746415,-266,-240,244
1657304746455,-611,-198,174
1657304746495,-1662,-132,482
1657304746535,-1600,-141,571
1657304746575,-2048,-409,1030
1657304746615,-1041,58,280
1657304746655,-735,123,167
1657304746695,-985,378,476
1657304746735,-771,800,356
1657304746775,-350,788,182
1657304746815,-894,592,113
1657304746855,-1948,647,589
1657304746895,-2048,115,1415
1657304746935,-2048,-301,1349
1657304746975,-920,-297,829
1657304747015,-301,-320,282
1657304747055,-29,-256,112
1657304747095,183,-295,86
1657304747135,86,-282,141
1657304747175,340,-207,43
1657304747215,311,-220,-209
1657304747255,-2048,-1238,1210
1657304747295,-2048,-666,959
1657304747335,-1796,-201,557
1657304747375,-989,48,67
1657304747415,-654,182,84
1657304747455,-435,406,144
1657304747495,-170,510,55
1657304747535,-44,439,-161
1657304747575,-484,690,-147
1657304747615,-1917,1289,524
1657304747655,-2048,789,1629
1657304747695,-2048,-29,1436
1657304747735,-604,-201,345
1657304747775,-124,-40,108
1657304747815,139,51,104
1657304747855,164,-167,46
1657304747895,-63,-366,211
1657304747935,-79,-424,158
1657304747975,-897,-327,305
1657304748015,-2048,106,1282
1657304748055,-2048,411,1594
1657304748095,-1537,371,579
1657304748135,-973,504,115
1657304748175,-604,625,293
1657304748215,-427,661,361
1657304748255,-230,609,144
1657304748295,113,677,-137
1657304748335,9,742,-181
1657304748375,-1437,1533,377
1657304748415,-2048,898,1967
1657304748455,-2048,158,1819
1657304748495,-724,-246,524
1657304748535,-163,-125,137
1657304748575,53,-79,21
1657304748615,121,-125,38
1657304748655,100,-103,114
1657304748695,164,-150,78
1657304748735,443,-383,163
1657304748775,-2048,-1225,1451
1657304748815,-2048,-892,1901
1657304748855,-1908,-287,719
1657304748895,-1150,125,77
1657304748935,-744,332,31
1657304748975,-495,480,167
1657304749015,-385,450,152
1657304749055,-268,411,101
1657304749095,-579,578,409
1657304749135,-1308,849,590
1657304749175,-2048,509,1096
1657304749215,-2048,-581,1655
1657304749255,-1090,-631,884
1657304749295,-218,-454,437
1657304749335,37,-681,237
1657304749375,404,-272,178
1657304749415,551,-431,-93
1657304749455,320,-735,-355
1657304749495,416,-949,-422
1657304749535,-2048,-1674,2043
1657304749575,-2048,-729,2046
1657304749615,-1757,-154,551
1657304749655,-1111,173,183
1657304749695,-755,299,2
1657304749735,-474,235,-33
1657304749775,-318,533,-58
1657304749815,-211,552,-77
1657304749855,-173,369,-330
1657304749895,-1471,1260,247
1657304749935,-2048,110,2046
1657304749975,-2048,-577,1970
1657304750015,-1252,-819,757
1657304750055,-324,-699,403
1657304750095,113,-597,86
1657304750135,103,-482,-73
1657304750175,133,-457,-68
1657304750215,345,-465,-148
1657304750255,718,-613,-403
1657304750295,-1198,-704,691
1657304750335,-2048,-1476,2046
1657304750375,-2048,-712,967
1657304750415,-1776,-260,247
1657304750455,-797,95,-174
1657304750495,-761,257,2
1657304750535,-650,597,160
1657304750575,-374,905,-75
1657304750615,-603,1178,147
1657304750655,-1700,943,591
1657304750695,-2048,219,1574
1657304750735,-2048,-884,1950
1657304750775,-1404,-1036,829
1657304750815,-164,-662,218
1657304750855,366,-260,-25
1657304750895,299,-302,-10
1657304750935,109,-301,14
1657304750975,95,-243,-219
1657304751015,321,-95,-223
1657304751055,210,-317,-22
1657304751095,-2048,-979,1439
1657304751135,-2048,-1182,1622
1657304751175,-1563,-1203,994
1657304751215,-1380,-933,394
1657304751255,-1522,-106,1314
1657304751295,-1519,695,1490
1657304751335,-865,1198,999
1657304751375,-585,813,-59
1657304751415,-768,345,-541
1657304751455,-1967,276,253
1657304751495,-2048,-465,2044
1657304751535,-2048,-1610,2046
1657304751575,-811,-1245,1012
1657304751615,42,-944,544
1657304751655,402,-697,146
1657304751695,363,-921,-675
1657304751735,101,-662,-762
1657304751775,288,-335,-312
1657304751815,225,-296,37
1657304751855,-2048,-543,1882
1657304751895,-2048,-962,2026
1657304751935,-2048,-32,555
1657304751975,-1325,281,196
1657304752015,-576,577,16
1657304752055,-555,500,172
1657304752095,-299,493,179
1657304752135,2,569,-23
1657304752175,73,602,13
1657304752215,-1511,989,565
1657304752255,-2048,522,1956
1657304752295,-2048,-327,1451
1657304752335,-900,-376,480
1657304752375,-230,-189,222
1657304752415,57,-95,1
1657304752455,83,-207,-117
1657304752495,34,-339,-5
1657304752535,83,-407,-3
1657304752575,-318,-479,-23
1657304752615,-2048,-739,1533
1657304752655,-2048,-257,1369
1657304752695,-1640,47,529
1657304752735,-1119,294,283
1657304752775,-706,317,174
1657304752815,-468,346,149
1657304752855,-487,305,146
1657304752895,150,868,-26
1657304752935,-77,741,100
1657304752975,-2048,922,887
1657304753015,-2048,184,1565
1657304753055,-1943,-271,930
1657304753095,-767,-452,315
1657304753135,-151,-252,137
1657304753175,154,-132,56
1657304753215,135,-218,23
1657304753255,13,-142,191
1657304753295,2,-153,66
1657304753335,-609,-330,-157
1657304753375,-2048,-675,1042
1657304753415,-2048,-377,1301
1657304753455,-1306,24,518
1657304753495,-882,173,106
1657304753535,-537,314,-85
1657304753575,-352,390,-51
1657304753615,-257,446,29
1657304753655,-304,475,136
1657304753695,-940,693,294
1657304753735,-2048,886,924
1657304753775,-2048,-4,1340
1657304753815,-1496,-401,601
1657304753855,-630,-367,294
1657304753895,-67,-240,179
1657304753935,127,-158,39
1657304753975,35,-295,65
1657304754015,139,-321,18
1657304754055,-108,-324,-122
1657304754095,-2048,-509,710
1657304754135,-2048,-327,1352
1657304754175,-1760,157,697
1657304754215,-1172,259,144
1657304754255,-780,355,-68
1657304754295,-596,329,-40
1657304754335,-431,409,35
1657304754375,-250,406,87
1657304754415,-329,591,25
1657304754455,-1693,1129,623
1657304754495,-2048,482,1520
1657304754535,-2048,-309,1251
1657304754575,-644,-394,335
1657304754615,-49,-216,66
1657304754655,78,-170,2
1657304754695,189,-167,45
1657304754735,140,-274,93
1657304754775,62,-406,-28
1657304754815,-1412,-520,443
1657304754855,-2048,-371,1174
1657304754895,-2048,-255,1142
1657304754935,-1346,46,485
1657304754975,-455,178,-105
1657304755015,-317,209,-354
1657304755055,-246,158,-218
1657304755095,-104,260,-5
1657304755135,-364,473,188
1657304755175,-1727,700,524
1657304755215,-2048,659,626
1657304755255,-2048,-261,861
1657304755295,-1153,-190,559
1657304755335,-516,-262,367
1657304755375,-87,-240,172
1657304755415,17,-262,235
1657304755455,95,-295,-30
1657304755495,268,-418,-107
1657304755535,126,-420,-228
1657304755575,-2048,-484,966
1657304755615,-2048,-71,1417
1657304755655,-2048,178,731
1657304755695,-1050,222,245
1657304755735,-610,296,-4
1657304755775,-483,347,-20
1657304755815,-343,432,70
1657304755855,-130,498,34
1657304755895,17,670,-162
1657304755935,-2048,1067,1043
1657304755975,-2048,395,1517
1657304756015,-1913,-273,912
1657304756055,-723,-271,510
1657304756095,-244,-267,326
1657304756135,-66,-290,138
1657304756175,-55,-368,33
1657304756215,-22,-335,-65
1657304756255,137,-435,-194
1657304756295,-324,-612,-317
1657304756335,-2048,-686,1105
1657304756375,-2048,-312,762
1657304756415,-1697,224,189
1657304756455,-784,418,302
1657304756495,-621,408,142
1657304756535,-347,472,115
1657304756575,-210,466,48
1657304756615,-58,426,-29
1657304756655,-453,251,-174
1657304756695,-1351,1368,111
1657304756735,-2048,198,2002
1657304756775,-2048,-480,1164
1657304756815,-629,-402,177
1657304756855,-158,-331,178
1657304756895,70,-249,55
1657304756935,64,-187,64
1657304756975,-10,-251,42
1657304757015,30,-288,-87
1657304757055,50,-555,-300
1657304757095,-2048,-909,842
1657304757135,-2048,-627,1484
1657304757175,-1705,-66,867
1657304757215,-803,111,369
1657304757255,-455,329,171
1657304757295,-361,459,131
1657304757335,-199,577,179
1657304757375,20,615,47
1657304757415,-249,856,154
1657304757455,-2048,936,1323
1657304757495,-2048,314,2046
1657304757535,-1174,-550,2044
1657304757575,-368,-462,662
1657304757615,-132,-305,118
1657304757655,-31,-231,42
1657304757695,49,-202,239
1657304757735,80,-248,178
1657304757775,143,-469,-203
1657304757815,-819,-733,-34
1657304757855,-2048,-733,1466
1657304757895,-2048,-129,594
1657304757935,-1335,12,158
1657304757975,-978,243,134
1657304758015,-708,368,101
1657304758055,-430,462,142
1657304758095,-204,540,143
1657304758135,75,562,-12
1657304758175,-179,856,17
1657304758215,-2048,808,1483
1657304758255,-2048,-256,1491
1657304758295,-1307,-353,551
1657304758335,-515,-418,341
1657304758375,-79,-393,78
1657304758415,21,-411,-3
1657304758455,97,-526,112
1657304758495,161,-448,138
1657304758535,729,-378,-330
1657304758575,-998,-427,33
1657304758615,-2048,-898,1997
1657304758655,-2048,-48,949
1657304758695,-1098,255,75
1657304758735,-529,320,-89
1657304758775,-388,373,-172
1657304758815,-213,307,-100
1657304758855,-124,381,-67
1657304758895,-144,554,134
1657304758935,-1563,768,605
1657304758975,-2048,245,1236
1657304759015,-2048,-285,1170
1657304759055,-894,-268,418
1657304759095,-325,-272,265
1657304759135,-78,-222,87
1657304759175,6,-250,-21
1657304759215,-18,-298,-47
1657304759255,15,-353,-103
1657304759295,-213,-502,-121
1657304759335,-2048,-600,1246
1657304759375,-2048,-37,1188
1657304759415,-1557,181,490
1657304759455,-877,249,67
1657304759495,-554,387,-105
1657304759535,-370,406,-2
1657304759575,-125,534,121
1657304759615,54,602,135
1657304759655,-712,920,325
1657304759695,-2048,957,1037
1657304759735,-2048,252,889
1657304759775,-1583,-42,354
1657304759815,-756,-12,289
1657304759855,-435,73,215
1657304759895,-256,-103,57
1657304759935,-305,-314,59
1657304759975,-128,-441,40
1657304760015,63,-378,-83
1657304760055,-1505,-441,331
1657304760095,-2048,118,1043
1657304760135,-2048,413,269
1657304760175,-1316,462,-96
1657304760215,-747,442,-234
1657304760255,-433,410,-172
1657304760295,-93,353,-32
1657304760335,64,396,9
1657304760375,280,504,63
1657304760415,-324,1134,53
1657304760455,-2048,1179,1170
1657304760495,-2048,492,1325
1657304760535,-1423,-17,559
1657304760575,-368,-169,228
1657304760615,-20,-45,6
1657304760655,-192,-74,93
1657304760695,-126,-129,159
1657304760735,48,-215,2
1657304760775,393,-320,-289
1657304760815,-473,-150,-51
1657304760855,-2048,-563,1391
1657304760895,-2048,125,1248
1657304760935,-1674,461,682
1657304760975,-752,640,110
1657304761015,-483,682,7
1657304761055,-429,630,132
1657304761095,-470,567,60
1657304761135,-123,577,-32
1657304761175,-560,1185,145
1657304761215,-2048,1563,1242
1657304761255,-2048,748,1746
1657304761295,-1312,-141,773
1657304761335,-376,-365,307
1657304761375,40,-344,-44
1657304761415,123,-250,-205
1657304761455,53,-304,-125
1657304761495,49,-432,2
1657304761535,-244,-623,1
1657304761575,-2048,-669,730
1657304761615,-2048,89,1555
1657304761655,-2048,764,917
1657304761695,-1265,767,135
1657304761735,-856,560,-169
1657304761775,-406,592,-89
1657304761815,-236,485,24
1657304761855,69,415,-155
1657304761895,250,472,-120
1657304761935,-487,1288,70
1657304761975,-2048,1406,1516
1657304762015,-2048,550,1290
1657304762055,-1434,-318,494
1657304762095,-413,-372,274
1657304762135,-12,-326,138
1657304762175,74,-258,84
1657304762215,60,-291,-36
1657304762255,2,-379,-148
1657304762295,140,-609,-219
1657304762335,-1962,-701,736
1657304762375,-2048,-347,1305
1657304762415,-2048,-121,351
1657304762455,-1356,241,-194
1657304762495,-722,525,-79
1657304762535,-603,566,-47
1657304762575,-271,549,-102
1657304762615,-15,494,-141
1657304762655,-105,513,-35
1657304762695,-2048,712,-7
1657304762735,-2048,712,520
1657304762775,-2048,-836,-370
1657304762815,-696,-711,-523
1657304762855,-193,-440,-73
1657304762895,91,-253,53
1657304762935,-69,-325,42
1657304762975,-32,-250,28
1657304763015,240,-417,-110
1657304763055,-143,-542,-269
1657304763095,-2048,-711,641
1657304763135,-2048,87,857
1657304763175,-1723,411,566
1657304763215,-899,502,226
1657304763255,-603,457,-12
1657304763295,-369,462,5
1657304763335,-154,561,11
1657304763375,-7,674,-32
1657304763415,-1189,917,232
1657304763455,-2048,1253,1332
1657304763495,-2048,132,1562
1657304763535,-1544,-340,1017
1657304763575,-698,-464,323
1657304763615,-272,-369,128
1657304763655,-150,-374,43
1657304763695,323,-188,-293
1657304763735,107,-300,-240
1657304763775,217,-386,-241
1657304763815,-1735,-528,413
1657304763855,-2048,250,1304
1657304763895,-2048,387,695
1657304763935,-1361,373,87
1657304763975,-783,434,-177
1657304764015,-574,443,-116
1657304764055,-294,451,-77
1657304764095,-38,518,-4
1657304764135,-351,572,16
1657304764175,-1253,1203,165
1657304764215,-2048,888,1470
1657304764255,-2048,114,1080
1657304764295,-1113,-247,306
1657304764335,-596,-182,11
1657304764375,-285,-92,24
1657304764415,-350,-73,49
1657304764455,-683,-106,25
1657304764495,-1247,-130,-113
1657304764535,-1577,566,-544
1657304764575,-2048,796,-222
1657304764615,-2010,682,31
1657304764655,-953,643,-122
1657304764695,46,762,256
1657304764735,-237,512,84
1657304764775,-47,330,-271
1657304764815,108,156,-179
1657304764855,80,183,35
1657304764895,-87,456,545
1657304764935,-4,1172,686
1657304764975,-299,1633,258
1657304765015,-34,1777,140
1657304765055,-32,1118,533
1657304765095,-168,480,586
1657304765135,-29,239,203
1657304765175,5,32,76
1657304765215,-101,-198,219
1657304765255,-481,-7,175
1657304765295,-983,483,87
1657304765335,-1084,677,534
1657304765375,-1551,945,185
1657304765415,-1640,458,842
1657304765455,-959,359,744
1657304765495,-489,266,174
1657304765535,-912,-280,1130
1657304765575,-592,202,662
1657304765615,-429,388,491
1657304765655,-1041,556,891
1657304765695,-1646,564,1713
1657304765735,-2048,-491,1804
1657304765775,-2048,-1107,1364
1657304765815,-659,-829,809
1657304765855,-146,-613,346
1657304765895,148,-258,-120
1657304765935,30,-278,-208
1657304765975,-145,-406,-94
1657304766015,-63,-365,-161
1657304766055,-148,-307,-429
1657304766095,-2048,-369,472
1657304766135,-2048,-157,1316
1657304766175,-1646,156,965
1657304766215,-930,231,654
1657304766255,-523,330,114
1657304766295,-640,482,-1
1657304766335,-777,453,431
1657304766375,-551,501,391
1657304766415,-1161,744,1094
1657304766455,-1590,454,1791
1657304766495,-1992,-126,1679
1657304766535,-1203,-45,1216
1657304766575,-769,-27,720
1657304766615,-446,-135,252
1657304766655,-250,-225,56
1657304766695,-148,-381,-55
1657304766735,101,-548,-397
1657304766775,-72,-634,-488
1657304766815,-1499,-287,380
1657304766855,-2048,7,1537
1657304766895,-1738,345,1254
1657304766935,-985,346,758
1657304766975,-704,437,437
1657304767015,-420,593,394
1657304767055,-434,675,487
1657304767095,-450,694,279
1657304767135,-690,918,472
1657304767175,-1758,1098,1403
1657304767215,-2048,410,2046
1657304767255,-1781,-376,1606
1657304767295,-973,-632,593
1657304767335,-281,-449,-59
1657304767375,-53,-274,-180
1657304767415,15,-251,-62
1657304767455,162,-281,-55
1657304767495,41,-433,-177
1657304767535,-1033,-214,25
1657304767575,-2048,90,1204
1657304767615,-2048,477,1158
1657304767655,-1309,434,779
1657304767695,-601,366,167
1657304767735,-437,302,-54
1657304767775,-320,514,3
1657304767815,-245,669,224
1657304767855,-213,999,363
1657304767895,-2048,1099,1051
1657304767935,-2048,452,1821
1657304767975,-2048,-391,1189
1657304768015,-968,-588,517
1657304768055,89,-353,148
1657304768095,265,-285,-33
1657304768135,183,-213,18
1657304768175,99,-269,44
1657304768215,134,-192,-1
1657304768255,-87,-104,-376
1657304768295,-2048,-283,1265
1657304768335,-2048,191,1017
1657304768375,-1537,390,524
1657304768415,-862,395,217
1657304768455,-532,201,-102
1657304768495,-378,271,-172
1657304768535,-145,388,-240
1657304768575,-299,518,-170
1657304768615,-1122,1228,-9
1657304768655,-2048,1393,1077
1657304768695,-2048,413,1318
1657304768735,-1158,-30,863
1657304768775,-466,-240,447
1657304768815,-132,-232,17
1657304768855,-25,-309,-79
1657304768895,-48,-379,124
1657304768935,216,-403,26
1657304768975,-105,-462,40
1657304769015,-2048,-391,1802
1657304769055,-2048,229,1061
1657304769095,-1759,385,411
1657304769135,-1145,493,86
1657304769175,-703,477,-219
1657304769215,-485,498,-65
1657304769255,-19,546,-122
1657304769295,218,398,-299
1657304769335,-638,713,-126
1657304769375,-2048,1364,675
1657304769415,-2048,898,1434
1657304769455,-1548,69,701
1657304769495,-843,-257,359
1657304769535,-308,-228,174
1657304769575,-63,-277,77
1657304769615,96,-255,45
1657304769655,181,-246,15
1657304769695,349,-309,-210
1657304769735,-1895,-420,829
1657304769775,-2048,309,1582
1657304769815,-1995,533,849
1657304769855,-1106,529,397
1657304769895,-696,486,41
1657304769935,-500,481,-33
1657304769975,-301,531,-66
1657304770015,4,436,-320
1657304770055,21,366,-278
1657304770095,-1621,1048,264
1657304770135,-2048,927,1384
1657304770175,-2048,306,820
1657304770215,-946,79,476
1657304770255,-633,87,222
1657304770295,-272,-128,88
1657304770335,-61,-200,149
1657304770375,140,-245,170
1657304770415,257,-380,48
1657304770455,-571,-501,142
1657304770495,-2048,393,1426
1657304770535,-2048,743,1179
1657304770575,-1239,593,362
1657304770615,-927,410,-181
1657304770655,-724,406,-75
1657304770695,-503,716,124
1657304770735,14,793,-86
1657304770775,-80,659,-107
1657304770815,-987,854,35
1657304770855,-2048,1534,1060
1657304770895,-2048,1042,1999
1657304770935,-1251,251,1126
1657304770975,-498,25,603
1657304771015,-189,-188,179
1657304771055,-292,-293,62
1657304771095,-163,-260,165
1657304771135,245,-170,-28
1657304771175,319,-313,-71
1657304771215,-981,51,575
1657304771255,-2048,93,1999
1657304771295,-1810,-174,1215
1657304771335,-2047,-111,496
1657304771375,-1234,532,86
1657304771415,-880,605,233
1657304771455,-305,826,104
1657304771495,89,681,-241
1657304771535,166,491,-206
1657304771575,-771,1144,151
1657304771615,-2048,892,1281
1657304771655,-2048,692,1479
1657304771695,-1214,0,732
1657304771735,-452,-233,490
1657304771775,-283,-265,143
1657304771815,-126,-408,-118
1657304771855,-13,-359,-98
1657304771895,260,-250,34
1657304771935,328,-419,5
1657304771975,-2048,-476,1077
1657304772015,-2048,191,1023
1657304772055,-2048,104,184
1657304772095,-1196,142,-88
1657304772135,-790,216,-55
1657304772175,-561,369,-52
1657304772215,-268,514,52
1657304772255,19,676,33
1657304772295,279,1019,-109
1657304772335,-881,1985,218
1657304772375,-2048,202,1114
1657304772415,-2048,-71,904
1657304772455,-969,-509,291
1657304772495,-206,-362,271
1657304772535,94,-234,150
1657304772575,144,-249,81
1657304772615,189,-185,28
1657304772655,156,-329,-52
1657304772695,-336,-390,4
1657304772735,-2048,-322,1205
1657304772775,-2048,267,965
1657304772815,-1659,397,462
1657304772855,-900,403,64
1657304772895,-550,381,-95
1657304772935,-438,345,-67
1657304772975,-252,308,-129
1657304773015,-86,404,-74
1657304773055,-391,716,-12
1657304773095,-2048,809,439
1657304773135,-2048,691,803
1657304773175,-2048,-232,680
1657304773215,-803,-451,311
1657304773255,-129,-334,57
1657304773295,88,-277,-67
1657304773335,2,-351,32
1657304773375,54,-300,35
1657304773415,210,-427,-55
1657304773455,-1326,-398,260
1657304773495,-2048,-242,810
1657304773535,-2048,211,615
1657304773575,-971,465,145
1657304773615,-423,319,-5
1657304773655,-49,345,-206
1657304773695,-46,287,-123
1657304773735,-121,376,5
1657304773775,-44,557,25
1657304773815,-558,1059,23
1657304773855,-2048,855,1156
1657304773895,-2048,-31,1332
1657304773935,-1413,-398,637
1657304773975,-665,-584,133
1657304774015,-129,-284,-174
1657304774055,-6,-218,-107
1657304774095,73,-283,93
1657304774135,260,-303,42
1657304774175,515,-417,-156
1657304774215,-989,-664,206
1657304774255,-2048,-1775,946
1657304774295,-2048,-925,1298
1657304774335,-1751,-140,690
1657304774375,-768,307,201
1657304774415,-427,509,26
1657304774455,-415,543,96
1657304774495,-208,585,91
1657304774535,-225,534,130
1657304774575,-1440,777,301
1657304774615,-2048,572,843
1657304774655,-2048,-173,839
1657304774695,-1044,-124,473
1657304774735,-482,-141,269
1657304774775,-323,-213,250
1657304774815,-64,-245,81
1657304774855,53,-266,40
1657304774895,146,-229,-85
1657304774935,-690,13,-438
1657304774975,-2048,-72,-624
1657304775015,-2048,-123,-93
1657304775055,-1513,101,-242
1657304775095,-1054,119,62
1657304775135,-660,166,-46
1657304775175,-491,116,-299
1657304775215,-143,199,181
1657304775255,-4,223,-76
1657304775295,-780,323,178
1657304775335,-1748,296,-157
1657304775375,-1403,177,-600
1657304775415,-1337,-174,-649
1657304775455,-1289,-355,-687
1657304775495,-762,-134,-576
1657304775535,-454,-40,-448
1657304775575,-468,-125,-360
1657304775615,-455,-214,-210
1657304775655,-673,-277,-309
1657304775695,-1886,-881,-1215
1657304775735,-1803,-341,-591
1657304775775,-1531,-120,-20
1657304775815,-882,307,-37
1657304775855,-563,395,-140
1657304775895,-331,377,-36
1657304775935,-415,320,177
1657304775975,-711,138,167
1657304776015,-992,39,-62
1657304776055,-1781,365,238
1657304776095,-2048,278,-25
1657304776135,-2006,104,-130
1657304776175,-1206,-121,-257
1657304776215,-548,-113,-186
1657304776255,-140,-105,-141
1657304776295,-185,-229,-176
1657304776335,-93,-262,-19
1657304776375,-59,-245,-45
1657304776415,-806,-337,-408
1657304776455,-2048,-394,-436
1657304776495,-2048,-213,-333
1657304776535,-1793,65,-67
1657304776575,-1047,217,9
1657304776615,-623,303,-38
1657304776655,-349,252,-50
1657304776695,-276,241,76
1657304776735,-258,363,228
1657304776775,-542,788,279
1657304776815,-2048,1122,542
1657304776855,-2048,342,169
1657304776895,-2048,-92,-164
1657304776935,-1036,-352,-157
1657304776975,-310,-311,-130
1657304777015,-108,-255,-82
1657304777055,-69,-280,30
1657304777095,-31,-274,-59
1657304777135,-494,-68,-259
1657304777175,-2048,-218,-373
1657304777215,-2048,7,-259
1657304777255,-1671,310,131
1657304777295,-1181,394,46
1657304777335,-721,422,-148
1657304777375,-456,364,-153
1657304777415,-317,369,46
1657304777455,-179,383,148
1657304777495,-641,784,251
1657304777535,-1997,878,362
1657304777575,-2048,690,-66
1657304777615,-1584,376,-573
1657304777655,-769,21,-384
1657304777695,-373,-208,-69
1657304777735,-224,-334,-41
1657304777775,-693,-508,-60
1657304777815,-639,-320,-156
1657304777855,-1240,-222,-368
1657304777895,-1674,4,-627
1657304777935,-2048,36,-534
1657304777975,-1605,223,-114
1657304778015,-936,446,-83
1657304778055,-483,525,-156
1657304778095,-282,435,-83
1657304778135,-160,461,189
1657304778175,-383,379,127
1657304778215,-773,412,106
1657304778255,-1823,757,298
1657304778295,-2048,558,-8
1657304778335,-2048,-140,-273
1657304778375,-1038,-187,315
1657304778415,-354,-84,226
1657304778455,-429,-86,-215
1657304778495,-311,-22,-304
1657304778535,-123,-41,-242
1657304778575,-683,-195,-130
1657304778615,-1690,-210,-297
1657304778655,-2048,-214,282
1657304778695,-2021,-25,738
1657304778735,-1199,227,422
1657304778775,-752,380,-105
1657304778815,-231,420,-116
1657304778855,24,313,67
1657304778895,-79,210,316
1657304778935,-136,291,350
1657304778975,-557,975,642
1657304779015,-2048,771,1109
1657304779055,-2048,154,1214
1657304779095,-1590,-63,818
1657304779135,-669,-141,135
1657304779175,-191,-96,-46
1657304779215,-134,-162,-40
1657304779255,-123,-240,114
1657304779295,33,-253,21
1657304779335,-633,28,-226
1657304779375,-2048,-150,141
1657304779415,-2048,-103,1122
1657304779455,-1354,89,1439
1657304779495,-977,268,829
1657304779535,-559,360,365
1657304779575,-51,361,260
1657304779615,24,302,313
1657304779655,67,313,221
1657304779695,289,522,199
1657304779735,-805,1239,1078
1657304779775,-2048,-35,2046
1657304779815,-1947,-116,1766
1657304779855,-863,-238,521
1657304779895,-233,-158,-127
1657304779935,-84,-163,-280
1657304779975,72,-190,-105
1657304780015,59,-233,-147
1657304780055,55,-235,-180
1657304780095,-814,-96,-39
1657304780135,-2048,-619,1108
1657304780175,-2048,34,1731
1657304780215,-1360,311,930
1657304780255,-892,478,471
1657304780295,-542,457,251
1657304780335,-337,368,302
1657304780375,-219,297,421
1657304780415,101,368,380
1657304780455,96,1037,568
1657304780495,-2048,572,1460
1657304780535,-2048,105,1601
1657304780575,-1561,-187,742
1657304780615,-457,-225,119
1657304780655,-37,-157,-100
1657304780695,63,-198,-152
1657304780735,97,-262,-27
1657304780775,50,-297,-14
1657304780815,-197,117,-245
1657304780855,-2048,-605,645
1657304780895,-2048,211,1134
1657304780935,-1312,409,573
1657304780975,-995,409,202
1657304781015,-514,436,99
1657304781055,-263,377,269
1657304781095,-214,296,452
1657304781135,29,373,409
1657304781175,-413,908,689
1657304781215,-2048,747,1327
1657304781255,-2048,153,995
1657304781295,-1690,-82,466
1657304781335,-684,-187,63
1657304781375,-282,-234,37
1657304781415,-128,-263,5
1657304781455,53,-249,-68
1657304781495,90,-225,-131
1657304781535,-70,11,-264
1657304781575,-2048,-166,153
1657304781615,-2048,14,642
1657304781655,-1774,333,552
1657304781695,-839,387,256
1657304781735,-448,482,8
1657304781775,-272,429,12
1657304781815,-214,454,311
1657304781855,-94,451,332
1657304781895,-8,698,307
1657304781935,-1859,1195,1102
1657304781975,-2048,340,994
1657304782015,-2048,-58,168
1657304782055,-951,-164,-306
1657304782095,-414,-144,-215
1657304782135,-187,-173,-54
1657304782175,-132,-264,-9
1657304782215,-22,-270,-48
1657304782255,-542,-287,-123
1657304782295,-2048,-246,129
1657304782335,-1702,367,113
1657304782375,-1851,320,337
1657304782415,-1442,425,278
1657304782455,-917,453,60
1657304782495,-462,406,-38
1657304782535,-298,372,17
1657304782575,-307,354,158
1657304782615,-120,466,210
1657304782655,-576,1148,444
1657304782695,-2048,1170,1272
1657304782735,-2048,-66,698
1657304782775,-1785,-382,-312
1657304782815,-500,-377,-381
1657304782855,-140,-293,-26
1657304782895,29,-249,109
1657304782935,59,-277,-30
1657304782975,115,-326,-190
1657304783015,-911,-350,-377
1657304783055,-2048,-177,-270
1657304783095,-2048,90,-141
1657304783135,-1480,291,87
1657304783175,-875,399,48
1657304783215,-566,486,-19
1657304783255,-422,414,-28
1657304783295,-346,380,76
1657304783335,-279,413,103
1657304783375,-930,902,145
1657304783415,-2048,966,166
1657304783455,-2048,310,224
1657304783495,-1690,109,148
1657304783535,-703,-43,76
1657304783575,-451,-184,37
1657304783615,-299,-299,-26
1657304783655,-86,-305,-64
1657304783695,130,-256,-145
1657304783735,317,-212,-378
1657304783775,-1449,-145,-99
1657304783815,-2048,-190,720
1657304783855,-2048,193,278
1657304783895,-1085,240,76
1657304783935,-649,278,32
1657304783975,-309,386,33
1657304784015,-183,444,188
1657304784055,-62,505,221
1657304784095,-32,576,247
1657304784135,-1066,1089,573
1657304784175,-2048,888,796
1657304784215,-2048,319,602
1657304784255,-1551,33,330
1657304784295,-649,-153,287
1657304784335,-237,-208,138
1657304784375,-67,-248,3
1657304784415,73,-304,-21
1657304784455,81,-349,-86
1657304784495,139,-230,-361
1657304784535,-2048,-478,54
1657304784575,-2048,-147,529
1657304784615,-1883,300,435
1657304784655,-1160,380,222
1657304784695,-599,454,-123
1657304784735,-512,364,-118
1657304784775,-365,452,222
1657304784815,-699,534,403
1657304784855,-1195,776,503
1657304784895,-2048,431,473
1657304784935,-2048,152,422
1657304784975,-1432,-55,441
1657304785015,-761,-262,221
1657304785055,-218,-261,-111
1657304785095,-31,-264,-181
1657304785135,59,-299,-98
1657304785175,87,-383,-31
1657304785215,106,-264,-187
1657304785255,-2048,-673,266
1657304785295,-2048,-33,255
1657304785335,-1712,152,222
1657304785375,-1029,283,62
1657304785415,-661,384,-108
1657304785455,-519,437,-36
1657304785495,-397,409,59
1657304785535,-633,466,53
1657304785575,-1826,862,334
1657304785615,-2048,495,206
1657304785655,-2031,152,90
1657304785695,-1276,-72,412
1657304785735,-800,-249,253
1657304785775,-477,-365,12
1657304785815,-166,-429,-32
1657304785855,71,-438,31
1657304785895,173,-327,-274
1657304785935,-2047,-467,-57
1657304785975,-2048,-49,367
1657304786015,-1476,257,320
1657304786055,-859,298,167
1657304786095,-495,269,-26
1657304786135,-552,287,123
1657304786175,-853,396,278
1657304786215,-776,485,201
1657304786255,-1500,642,428
1657304786295,-2048,452,551
1657304786335,-2048,67,583
1657304786375,-1378,-100,361
1657304786415,-620,-98,129
1657304786455,-251,-104,39
1657304786495,-76,-127,45
1657304786535,47,-202,57
1657304786575,98,-571,44
1657304786615,-661,-899,4
1657304786655,-2048,-690,393
1657304786695,-2048,53,48
1657304786735,-1526,182,-41
1657304786775,-862,373,-29
1657304786815,-688,407,122
1657304786855,-445,451,213
1657304786895,-241,408,132
1657304786935,-59,457,34
1657304786975,-533,754,28
1657304787015,-2048,905,701
1657304787055,-2048,221,1034
1657304787095,-1843,-489,487
1657304787135,-649,-557,83
1657304787175,-96,-387,-127
1657304787215,151,-219,-154
1657304787255,247,-156,-38
1657304787295,-20,-373,-11
1657304787335,-433,-660,-162
1657304787375,-2048,-654,366
1657304787415,-2048,-189,629
1657304787455,-1966,140,494
1657304787495,-1136,301,286
1657304787535,-700,390,123
1657304787575,-472,387,21
1657304787615,-369,331,27
1657304787655,-137,325,-7
1657304787695,-385,397,38
1657304787735,-1396,978,428
1657304787775,-2048,329,518
1657304787815,-2048,-176,334
1657304787855,-1077,-414,294
1657304787895,-483,-312,104
1657304787935,-258,-268,20
1657304787975,-195,-256,-36
1657304788015,-221,-374,-39
1657304788055,-211,-452,-213
1657304788095,-984,-112,-198
1657304788135,-2048,-13,384
1657304788175,-2048,26,63
1657304788215,-992,9,-175
1657304788255,-523,118,-80
1657304788295,-327,209,8
1657304788335,-338,252,-14
1657304788375,-422,243,-168
1657304788415,-699,595,-27
1657304788455,-1255,936,655
1657304788495,-1374,831,855
1657304788535,-2048,165,832
1657304788575,-1392,147,592
1657304788615,-840,-33,328
1657304788655,-489,-87,105
1657304788695,-209,-173,-49
1657304788735,-10,-320,-159
1657304788775,154,-210,-226
1657304788815,-38,-151,-254
1657304788855,-1377,-45,148
1657304788895,-2048,-1021,225
1657304788935,-2048,-309,113
1657304788975,-1377,-31,4
1657304789015,-711,209,-41
1657304789055,-502,338,35
1657304789095,-376,401,103
1657304789135,-250,317,88
1657304789175,-560,462,199
1657304789215,-1896,712,47
1657304789255,-2048,679,-147
1657304789295,-2048,-45,-460
1657304789335,-1013,-335,-210
1657304789375,-456,-473,-36
1657304789415,-275,-212,176
1657304789455,-270,-222,99
1657304789495,-155,-294,-149
1657304789535,-571,-316,-283
1657304789575,-1155,-453,-855
1657304789615,-1901,-451,-976
1657304789655,-1896,-274,-602
1657304789695,-1376,-8,-295
1657304789735,-889,215,-305
1657304789775,-587,347,-205
1657304789815,-307,394,-48
1657304789855,-346,437,176
1657304789895,-368,420,146
1657304789935,-1099,536,148
1657304789975,-2048,430,157
1657304790015,-2048,0,-226
1657304790055,-1863,-370,-498
1657304790095,-689,-269,-234
1657304790135,-239,-181,-62
1657304790175,-88,-157,-53
1657304790215,-44,-233,-81
1657304790255,-48,-286,-133
1657304790295,152,-376,-242
1657304790335,-1687,-657,-588
1657304790375,-2048,-607,-960
1657304790415,-1962,77,-29
1657304790455,-1506,282,34
1657304790495,-1041,376,-48
1657304790535,-665,335,-121
1657304790575,-605,308,51
1657304790615,-335,346,140
1657304790655,-88,451,169
1657304790695,-686,839,231
1657304790735,-2003,918,268
1657304790775,-2048,371,191
1657304790815,-1954,-58,202
1657304790855,-1054,-407,-74
1657304790895,-475,-458,-259
1657304790935,-152,-266,-177
1657304790975,0,-96,117
1657304791015,-151,-202,164
1657304791055,-453,-251,-39
1657304791095,-1235,-388,-235
1657304791135,-2048,-707,-229
1657304791175,-1982,36,12
1657304791215,-1600,395,208
1657304791255,-839,532,131
1657304791295,-653,478,-34
1657304791335,-665,502,-28
1657304791375,-581,643,61
1657304791415,-825,479,119
1657304791455,-1562,594,213
1657304791495,-2048,590,737
1657304791535,-2048,-316,765
1657304791575,-1511,-323,475
1657304791615,-789,-380,294
1657304791655,-253,-351,70
1657304791695,11,-282,-37
1657304791735,0,-298,-68
1657304791775,-20,-337,-147
1657304791815,-216,-381,-287
1657304791855,-1993,-411,-122
1657304791895,-2048,-79,377
1657304791935,-2044,255,292
1657304791975,-1333,339,124
1657304792015,-800,442,-69
1657304792055,-551,446,-33
1657304792095,-364,456,73
1657304792135,-63,479,116
1657304792175,124,621,-5
1657304792215,-1687,1371,658
1657304792255,-2048,454,1000
1657304792295,-2048,215,909
1657304792335,-1123,-128,413
1657304792375,-425,-271,142
1657304792415,36,-333,9
1657304792455,237,-458,-65
1657304792495,209,-621,-6
1657304792535,409,-517,-104
1657304792575,339,-496,-195
1657304792615,-2048,-1184,2046
1657304792655,-2048,115,1410
1657304792695,-1847,517,275
1657304792735,-920,561,32
1657304792775,-655,514,-173
1657304792815,-552,316,-141
1657304792855,-388,251,-35
1657304792895,313,204,-596
1657304792935,774,482,-987
1657304792975,-2048,635,1935
1657304793015,-2048,520,1309
1657304793055,-1547,-150,457
1657304793095,-596,-52,655
1657304793135,17,-231,453
1657304793175,242,-279,272
1657304793215,404,-305,260
1657304793255,415,-489,199
1657304793295,679,-409,192
1657304793335,-1211,-836,1055
1657304793375,-2048,-298,1578
1657304793415,-2048,-238,177
1657304793455,-1404,-178,-169
1657304793495,-781,123,-335
1657304793535,-545,283,-328
1657304793575,-435,384,-348
1657304793615,-242,350,-484
1657304793655,32,426,-548
1657304793695,-2017,986,-243
1657304793735,-2048,-29,570
1657304793775,-2048,-683,816
1657304793815,-1073,-516,739
1657304793855,-105,-338,629
1657304793895,238,-177,493
1657304793935,321,-324,53
1657304793975,330,-313,144
1657304794015,302,-417,110
1657304794055,433,-712,-87
1657304794095,-2048,-193,998
1657304794135,-2048,497,2046
1657304794175,-1908,612,450
1657304794215,-727,533,-150
1657304794255,-462,360,-307
1657304794295,-427,25,-453
1657304794335,-205,-34,-433
1657304794375,37,308,-155
1657304794415,-911,520,-236
1657304794455,-2048,1110,137
1657304794495,-2048,844,1081
1657304794535,-1860,558,1011
1657304794575,-820,191,750
1657304794615,-294,-169,320
1657304794655,-70,-211,208
1657304794695,367,-72,344
1657304794735,365,-291,-6
1657304794775,300,-520,-194
1657304794815,-1196,-397,252
1657304794855,-2048,-870,1432
1657304794895,-2048,-394,425
1657304794935,-1235,-273,-145
1657304794975,-923,-174,-303
1657304795015,-677,-39,-272
1657304795055,-353,230,-127
1657304795095,-148,377,-134
1657304795135,68,619,-347
1657304795175,-632,1266,-278
1657304795215,-2048,1012,772
1657304795255,-2048,283,899
1657304795295,-1506,-52,279
1657304795335,-821,-122,148
1657304795375,-482,65,211
1657304795415,-223,45,250
1657304795455,-68,-30,247
1657304795495,-11,-169,108
1657304795535,-366,-559,90
1657304795575,-1788,-224,344
1657304795615,-2048,103,846
1657304795655,-1749,422,731
1657304795695,-1222,350,248
1657304795735,-899,141,-68
1657304795775,-730,-222,-227
1657304795815,-679,-43,-12
1657304795855,-378,537,-8
1657304795895,52,996,-130
1657304795935,-491,1189,-106
1657304795975,-2048,1471,856
1657304796015,-2048,774,1128
1657304796055,-2048,-95,651
1657304796095,-1199,-266,50
1657304796135,-487,-419,93
1657304796175,-91,-400,-199
1657304796215,-27,-520,-57
1657304796255,-287,-459,905
1657304796295,-184,28,1228
1657304796335,-157,745,800
1657304796375,-419,1050,1180
1657304796415,-308,1083,1036
1657304796455,-63,1052,668
1657304796495,-11,771,381
1657304796535,259,571,470
1657304796575,269,368,416
1657304796615,266,286,19
1657304796655,169,664,-33
1657304796695,161,1815,302
1657304796735,43,1805,1091
1657304796775,-234,1420,968
1657304796815,-164,890,334
1657304796855,-199,583,7
1657304796895,-250,333,233
1657304796935,-77,189,432
1657304796975,14,31,378
1657304797015,-340,234,346
1657304797055,-669,985,953
1657304797095,-452,1254,1242
1657304797135,-675,1343,651
1657304797175,-700,921,592
1657304797215,-490,713,329
1657304797255,-114,563,95
1657304797295,30,590,178
1657304797335,-203,519,94
1657304797375,-754,888,-24
1657304797415,-967,1979,544
1657304797455,-1056,2047,890
1657304797495,-838,2047,1406
1657304797535,-628,1019,1058
1657304797575,-518,162,534
1657304797615,-132,33,249
1657304797655,-20,77,156
1657304797695,12,-74,200
1657304797735,-46,-164,124
1657304797775,-195,-372,-6
1657304797815,-2048,767,1227
1657304797855,-2018,2047,1616
1657304797895,-806,1049,332
1657304797935,-835,818,184
1657304797975,-702,513,-117
1657304798015,-339,357,-334
1657304798055,-308,435,-356
1657304798095,-166,575,-417
1657304798135,-541,947,-488
1657304798175,-2048,1663,525
1657304798215,-2048,2047,818
1657304798255,-1779,1361,1116
1657304798295,-570,393,747
1657304798335,-214,-164,476
1657304798375,22,-371,137
1657304798415,106,-365,69
1657304798455,81,-271,145
1657304798495,-32,-245,208
1657304798535,-1674,-140,283
1657304798575,-2048,1331,1303
1657304798615,-1879,1300,274
1657304798655,-870,966,-127
1657304798695,-364,482,-376
1657304798735,-44,108,-415
1657304798775,-74,-189,-192
1657304798815,-39,29,56
1657304798855,-121,286,72
1657304798895,-433,427,-374
1657304798935,-2048,1453,-186
1657304798975,-2048,1593,506
1657304799015,-1968,1012,467
1657304799055,-683,532,507
1657304799095,-285,114,470
1657304799135,-112,-311,424
1657304799175,71,-373,459
1657304799215,12,-515,284
1657304799255,65,-535,22
1657304799295,-405,-362,-43
1657304799335,-2048,40,809
1657304799375,-2048,382,856
1657304799415,-1543,699,481
1657304799455,-1097,596,294
1657304799495,-699,265,-94
1657304799535,-422,232,-36
1657304799575,-63,430,-158
1657304799615,222,351,-432
1657304799655,-124,320,-308
1657304799695,-1529,660,-270
1657304799735,-2048,1036,205
1657304799775,-2048,211,882
1657304799815,-1106,1,549
1657304799855,-721,-129,136
1657304799895,-540,-149,16
1657304799935,-336,-198,-271
1657304799975,-300,-252,-160
1657304800015,9,-273,90
1657304800055,-208,-506,-42
1657304800095,-2048,-891,680
1657304800135,-2048,-439,1220
1657304800175,-1524,369,923
1657304800215,-1168,424,596
1657304800255,-835,368,107
1657304800295,-629,346,-76
1657304800335,-222,268,-27
1657304800375,-159,-145,106
1657304800415,87,352,-414
1657304800455,-1558,1416,-220
1657304800495,-2048,30,1589
1657304800535,-2048,461,1240
1657304800575,-839,-257,571
1657304800615,-194,-275,239
1657304800655,203,-158,21
1657304800695,246,-367,104
1657304800735,176,-358,302
1657304800775,46,-406,208
1657304800815,-1141,-582,169
1657304800855,-2048,-127,1422
1657304800895,-2048,653,1553
1657304800935,-1436,525,527
1657304800975,-979,393,-26
1657304801015,-686,349,-72
1657304801055,-465,348,17
1657304801095,-281,508,165
1657304801135,-110,586,83
1657304801175,-261,700,-145
1657304801215,-2048,703,722
1657304801255,-2048,377,1832
1657304801295,-2048,-53,1165
1657304801335,-671,-177,439
1657304801375,-260,-164,208
1657304801415,40,-126,78
1657304801455,178,-110,15
1657304801495,124,-152,76
1657304801535,147,-96,-17
1657304801575,-1099,-396,27
1657304801615,-2048,-624,1129
1657304801655,-2037,319,1122
1657304801695,-1237,401,587
1657304801735,-1012,376,210
1657304801775,-680,300,-143
1657304801815,-382,344,-144
1657304801855,-161,567,21
1657304801895,-33,700,179
1657304801935,-1136,904,293
1657304801975,-2048,1090,659
1657304802015,-2048,656,1234
1657304802055,-1234,245,858
1657304802095,-424,39,444
1657304802135,-176,-130,126
1657304802175,-68,-188,35
1657304802215,-25,-254,108
1657304802255,-26,-320,21
1657304802295,-349,-70,-315
1657304802335,-2048,-205,950
1657304802375,-2048,228,862
1657304802415,-1181,575,424
1657304802455,-933,534,206
1657304802495,-629,558,-65
1657304802535,-398,451,-144
1657304802575,-301,408,-73
1657304802615,-63,452,-65
1657304802655,48,605,-200
1657304802695,-1330,1400,-153
1657304802735,-2048,1343,767
1657304802775,-2048,953,848
1657304802815,-1259,302,804
1657304802855,-446,-147,533
1657304802895,-152,-326,201
1657304802935,-46,-355,56
1657304802975,4,-313,87
1657304803015,0,-385,2
1657304803055,-246,-378,-99
1657304803095,-2048,-16,470
1657304803135,-2048,149,1170
1657304803175,-2041,378,556
1657304803215,-1242,159,-76
1657304803255,-764,-23,-324
1657304803295,-464,125,-329
1657304803335,-212,378,164
1657304803375,28,644,223
1657304803415,-282,896,187
1657304803455,-1768,1387,550
1657304803495,-2048,848,1001
1657304803535,-2048,108,688
1657304803575,-968,-134,328
1657304803615,-511,-183,239
1657304803655,-244,-174,118
1657304803695,-156,-305,57
1657304803735,-53,-337,51
1657304803775,-13,-368,-67
1657304803815,-798,36,0
1657304803855,-2048,222,1474
1657304803895,-2048,415,1002
1657304803935,-1033,454,268
1657304803975,-654,345,-17
1657304804015,-437,393,-231
1657304804055,-242,338,-134
1657304804095,-168,427,-10
1657304804135,-70,375,-227
1657304804175,-393,976,-238
1657304804215,-2048,2047,1502
1657304804255,-1881,1321,2046
1657304804295,-807,462,1577
1657304804335,-612,33,716
1657304804375,-557,-15,118
1657304804415,-295,-155,70
1657304804455,-116,-335,214
1657304804495,-88,-520,193
1657304804535,-491,-298,288
1657304804575,-1042,60,741
1657304804615,-1296,411,991
1657304804655,-1235,452,1127
1657304804695,-1096,407,800
1657304804735,-1059,386,801
1657304804775,-677,352,390
1657304804815,-480,427,198
1657304804855,-215,496,153
1657304804895,-75,261,95
1657304804935,-1114,1809,284
1657304804975,-1512,2047,2046
1657304805015,-868,1880,2046
1657304805055,-437,380,1045
1657304805095,-320,-176,465
1657304805135,-135,-23,405
1657304805175,320,68,95
1657304805215,-33,-187,331
1657304805255,-160,-444,507
1657304805295,-546,-437,578
1657304805335,-1746,239,1518
1657304805375,-1847,608,1730
1657304805415,-1526,635,1206
1657304805455,-1149,528,566
1657304805495,-889,432,172
1657304805535,-600,362,-22
1657304805575,-323,420,-63
1657304805615,-93,388,-216
1657304805655,-561,652,-136
1657304805695,-1655,1194,739
1657304805735,-2048,1052,1585
1657304805775,-1541,444,1406
1657304805815,-778,-51,728
1657304805855,-418,-124,223
1657304805895,-209,-182,137
1657304805935,-75,-255,151
1657304805975,51,-334,141
1657304806015,-114,-282,63
1657304806055,-1609,-250,385
1657304806095,-2048,114,1272
1657304806135,-1981,332,826
1657304806175,-1137,412,324
1657304806215,-829,463,119
1657304806255,-570,367,73
1657304806295,-339,475,132
1657304806335,-195,479,198
1657304806375,-184,605,37
1657304806415,-1197,1261,541
1657304806455,-2048,1033,1107
1657304806495,-2048,329,1445
1657304806535,-1137,-119,877
1657304806575,-577,-196,283
1657304806615,-275,-144,87
1657304806655,-95,-170,40
1657304806695,42,-206,18
1657304806735,-104,-277,-21
1657304806775,-1389,133,202
1657304806815,-2048,153,940
1657304806855,-1681,210,353
1657304806895,-1232,280,-16
1657304806935,-828,283,-93
1657304806975,-361,292,-81
1657304807015,-240,260,-19
1657304807055,-300,353,176
1657304807095,-379,484,131
1657304807135,-829,676,125
1657304807175,-2048,1229,560
1657304807215,-2048,769,1161
1657304807255,-1707,259,1323
1657304807295,-604,-92,778
1657304807335,-54,-233,151
1657304807375,175,-230,-170
1657304807415,130,-271,-137
1657304807455,-131,-322,111
1657304807495,-142,-152,13
1657304807535,-692,262,109
1657304807575,-2048,-167,1657
1657304807615,-2048,2,1114
1657304807655,-1007,263,88
1657304807695,-920,331,-148
1657304807735,-499,321,-61
1657304807775,-326,405,79
1657304807815,-244,454,97
1657304807855,-149,440,-18
1657304807895,-127,750,-164
1657304807935,-2048,1002,932
1657304807975,-2048,-445,617
1657304808015,-1759,-381,-22
1657304808055,-782,-306,-92
1657304808095,-139,-115,45
1657304808135,113,24,299
1657304808175,174,30,300
1657304808215,115,-175,60
1657304808255,-45,-476,-147
1657304808295,-1143,-563,-62
1657304808335,-2048,-1056,398
1657304808375,-2048,-298,372
1657304808415,-1271,187,63
1657304808455,-887,270,-10
1657304808495,-651,351,-105
1657304808535,-405,329,-142
1657304808575,-249,150,152
1657304808615,-71,211,-100
1657304808655,-1194,856,-155
1657304808695,-2048,527,30
1657304808735,-2048,-324,335
1657304808775,-1436,-241,1
1657304808815,-586,-118,105
1657304808855,-238,-42,33
1657304808895,-206,-253,25
1657304808935,62,-300,94
1657304808975,162,-440,248
1657304809015,-188,-354,154
1657304809055,-2048,-353,424
1657304809095,-2048,-273,856
1657304809135,-2013,172,479
1657304809175,-1350,228,106
1657304809215,-828,325,-98
1657304809255,-643,432,-85
1657304809295,-448,454,20
1657304809335,-211,464,-6
1657304809375,-2,460,-163
1657304809415,-1326,989,-32
1657304809455,-2048,448,902
1657304809495,-2048,154,1038
1657304809535,-982,-154,508
1657304809575,-352,-292,233
1657304809615,-49,-282,150
1657304809655,192,-183,-87
1657304809695,203,-148,-121
1657304809735,65,-464,41
1657304809775,-534,49,68
1657304809815,-2048,-513,1069
1657304809855,-2048,-13,428
1657304809895,-1517,199,-47
1657304809935,-1130,206,-177
1657304809975,-709,482,-341
1657304810015,-458,348,-85
1657304810055,-390,351,14
1657304810095,-20,416,-41
1657304810135,-150,667,-162
1657304810175,-2013,1077,-86
1657304810215,-2048,818,388
1657304810255,-2048,310,264
1657304810295,-871,1,48
1657304810335,-461,-103,50
1657304810375,-282,-152,60
1657304810415,-68,-197,43
1657304810455,18,-268,-81
1657304810495,244,-239,33
1657304810535,-131,-210,-114
1657304810575,-2048,-608,741
1657304810615,-2048,-292,503
1657304810655,-1804,-162,-55
1657304810695,-1123,-53,-165
1657304810735,-783,99,-224
1657304810775,-605,181,-121
1657304810815,-374,417,-70
1657304810855,-19,283,69
1657304810895,70,657,9
1657304810935,-1863,1264,532
1657304810975,-2048,288,490
1657304811015,-2048,-11,64
1657304811055,-1139,-381,-176
1657304811095,-453,-418,-140
1657304811135,-234,-647,-123
1657304811175,21,-383,35
1657304811215,215,-68,173
1657304811255,269,42,102
1657304811295,-67,135,-206
1657304811335,-2048,-345,1082
1657304811375,-2048,144,696
1657304811415,-1477,256,34
1657304811455,-917,246,-147
1657304811495,-750,338,-471
1657304811535,-700,451,-414
1657304811575,-817,504,-183
1657304811615,-1292,480,86
1657304811655,-1025,954,568
1657304811695,-1806,1140,1015
1657304811735,-1704,838,748
1657304811775,-967,636,647
1657304811815,-287,384,-74
1657304811855,-210,28,281
1657304811895,-102,-98,-13
1657304811935,-63,-100,57
1657304811975,-460,95,132
1657304812015,-478,942,28
1657304812055,-368,1371,614
1657304812095,-888,1405,792
1657304812135,-794,1419,166
1657304812175,-508,908,24
1657304812215,-159,520,194
1657304812255,1161,-200,214
1657304812295,445,-35,85
1657304812335,-9,87,236
1657304812375,-680,681,851
1657304812415,-743,1518,876
1657304812455,-974,1530,907
1657304812495,-721,1336,670
1657304812535,-878,916,409
1657304812575,-826,405,411
1657304812615,-698,171,250
1657304812655,-524,14,-170
1657304812695,-472,-80,-84
1657304812735,-676,-37,150
1657304812775,-1021,329,369
1657304812815,-2048,280,443
1657304812855,-2048,339,774
1657304812895,-1446,402,479
1657304812935,-1044,461,87
1657304812975,-827,331,-72
1657304813015,-406,222,-97
1657304813055,-295,140,51
1657304813095,-170,397,156
1657304813135,-269,629,68
1657304813175,-1735,1166,940
1657304813215,-2048,843,1256
1657304813255,-2048,182,809
1657304813295,-1280,72,396
1657304813335,-620,-24,145
1657304813375,-329,-34,4
1657304813415,-143,-96,-57
1657304813455,4,-141,-20
1657304813495,-97,-313,-40
1657304813535,-611,-406,13
1657304813575,-2048,188,634
1657304813615,-2048,391,826
1657304813655,-1507,570,438
1657304813695,-1012,554,213
1657304813735,-756,459,76
1657304813775,-331,399,-116
1657304813815,-113,388,-61
1657304813855,56,488,126
1657304813895,-236,599,304
1657304813935,-1685,906,545
1657304813975,-2048,1108,772
1657304814015,-2048,188,785
1657304814055,-919,43,402
1657304814095,-422,-60,237
1657304814135,-185,-37,7
1657304814175,-232,-62,-252
1657304814215,155,-182,30
1657304814255,-248,-218,-2
1657304814295,-899,-46,120
1657304814335,-2048,-125,951
1657304814375,-2048,103,1013
1657304814415,-1072,256,441
1657304814455,-746,246,224
1657304814495,-450,335,195
1657304814535,-245,342,227
1657304814575,-165,361,344
1657304814615,-49,567,271
1657304814655,-675,691,218
1657304814695,-1688,988,1060
1657304814735,-2048,607,1573
1657304814775,-1756,-88,-524
1657304814815,-870,-32,-320
1657304814855,-423,202,-117
1657304814895,-48,115,-95
1657304814935,-579,-411,194
1657304814975,-29,-158,76
1657304815015,-229,4,288
1657304815055,-942,147,352
1657304815095,-2048,452,480
1657304815135,-2048,1094,549
1657304815175,-1431,951,217
1657304815215,-1104,648,-70
1657304815255,-627,505,-229
1657304815295,-361,408,-130
1657304815335,-40,359,-199
1657304815375,102,317,-235
1657304815415,29,420,-465
1657304815455,-1647,1284,-261
1657304815495,-2048,2047,603
1657304815535,-2030,1436,668
1657304815575,-867,427,391
1657304815615,-340,130,283
1657304815655,-63,21,226
1657304815695,0,-71,230
1657304815735,50,-105,145
1657304815775,-115,-226,-64
1657304815815,-1737,-41,404
1657304815855,-2048,994,1075
1657304815895,-1546,1264,767
1657304815935,-1018,835,211
1657304815975,-792,626,-154
1657304816015,-543,625,-210
1657304816055,-329,512,-219
1657304816095,-174,451,-140
1657304816135,32,331,-277
1657304816175,-893,934,-287
1657304816215,-2048,1735,464
1657304816255,-2048,1608,765
1657304816295,-1288,782,521
1657304816335,-672,222,224
1657304816375,-290,54,149
1657304816415,-55,3,115
1657304816455,19,-68,79
1657304816495,16,-274,120
1657304816535,5,-350,25
1657304816575,-2048,-26,802
1657304816615,-2048,664,1098
1657304816655,-1729,871,502
1657304816695,-1305,610,249
1657304816735,-885,430,-161
1657304816775,-833,119,-476
1657304816815,-473,-1,-3
1657304816855,-136,67,-1
1657304816895,24,409,59
1657304816935,-628,1372,-24
1657304816975,-2048,1513,310
1657304817015,-2048,764,911
1657304817055,-1564,93,426
1657304817095,-584,-140,121
1657304817135,-218,-156,88
1657304817175,-9,-299,92
1657304817215,102,-326,75
1657304817255,126,-452,51
1657304817295,-407,-354,-21
1657304817335,-2048,-33,975
1657304817375,-2048,-72,1089
1657304817415,-1570,442,684
1657304817455,-637,660,435
1657304817495,-271,660,171
1657304817535,-346,484,-52
1657304817575,-327,416,-113
1657304817615,71,544,111
1657304817655,-231,723,39
1657304817695,-1677,1295,574
1657304817735,-2048,1292,1309
1657304817775,-1901,474,1307
1657304817815,-867,110,777
1657304817855,-483,-73,318
1657304817895,-238,-194,130
1657304817935,-24,-181,48
1657304817975,73,-198,80
1657304818015,149,-293,-127
1657304818055,-843,8,222
1657304818095,-2048,-18,1572
1657304818135,-2048,432,1279
1657304818175,-1222,504,591
1657304818215,-883,539,212
1657304818255,-702,372,50
1657304818295,-536,239,-109
1657304818335,-213,240,3
1657304818375,37,377,18
1657304818415,-696,960,166
1657304818455,-1523,1157,860
1657304818495,-2048,1026,1279
1657304818535,-1519,629,1241
1657304818575,-810,189,625
1657304818615,-381,47,240
1657304818655,-318,-120,185
1657304818695,-220,-182,164
1657304818735,-54,-219,79
1657304818775,125,-215,-242
1657304818815,-965,-97,56
1657304818855,-2048,-83,1602
1657304818895,-1981,188,1016
1657304818935,-1134,339,212
1657304818975,-846,390,17
1657304819015,-645,378,10
1657304819055,-402,449,78
1657304819095,-252,502,167
1657304819135,1,479,60
1657304819175,-542,927,-98
1657304819215,-2048,1118,1165
1657304819255,-2048,488,1299
1657304819295,-1311,-6,544
1657304819335,-565,-177,257
1657304819375,-182,-149,88
1657304819415,-62,-218,11
1657304819455,38,-237,2
1657304819495,-47,-306,29
1657304819535,-90,-361,-53
1657304819575,-2048,-268,545
1657304819615,-2048,189,1162
1657304819655,-1781,442,859
1657304819695,-1214,524,376
1657304819735,-905,420,142
1657304819775,-596,330,-67
1657304819815,-373,279,-68
1657304819855,-227,254,76
1657304819895,-78,348,108
1657304819935,-667,786,149
1657304819975,-2048,788,716
1657304820015,-2048,627,1135
1657304820055,-1656,171,762
1657304820095,-678,97,252
1657304820135,-338,111,0
1657304820175,-182,-41,-87
1657304820215,-42,-74,-60
1657304820255,-144,-216,80
1657304820295,-37,-249,20
1657304820335,250,-487,-120
1657304820375,-1521,-683,580
1657304820415,-2048,-1322,1934
1657304820455,-1989,-424,1095
1657304820495,-1154,304,418
1657304820535,-983,518,132
1657304820575,-782,470,-24
1657304820615,-518,494,-7
1657304820655,-274,586,-123
1657304820695,-54,479,-47
1657304820735,-657,615,12
1657304820775,-2048,570,1390
1657304820815,-2048,79,1928
1657304820855,-1723,-417,868
1657304820895,-744,-212,459
1657304820935,-191,-108,229
1657304820975,-106,-121,73
1657304821015,-37,-166,140
1657304821055,5,-127,214
1657304821095,135,-229,124
1657304821135,241,-627,-52
1657304821175,-2048,-1096,624
1657304821215,-2048,-753,1859
1657304821255,-2048,-166,1113
1657304821295,-1361,118,565
1657304821335,-924,248,393
1657304821375,-566,359,312
1657304821415,-442,461,210
1657304821455,-375,402,-11
1657304821495,-328,376,-189
1657304821535,-620,331,-129
1657304821575,-1565,567,198
1657304821615,-2048,109,978
1657304821655,-2048,-372,1113
1657304821695,-1504,-329,729
1657304821735,-1119,-156,678
1657304821775,-541,-260,424
1657304821815,-289,-307,205
1657304821855,-98,-215,75
1657304821895,-132,-268,88
1657304821935,-53,-275,-77
1657304821975,-830,-291,-314
1657304822015,-1028,97,-210
1657304822055,-2048,-500,441
1657304822095,-2048,-300,1008
1657304822135,-1249,30,574
1657304822175,-1159,26,245
1657304822215,-747,108,-113
1657304822255,-524,61,-64
1657304822295,-470,257,53
1657304822335,-557,498,120
1657304822375,-541,898,414
1657304822415,-1103,638,501
1657304822455,-2048,248,1088
1657304822495,-2048,-48,1326
1657304822535,-2048,-435,1413
1657304822575,-1377,-269,764
1657304822615,-824,38,505
1657304822655,-528,117,267
1657304822695,-289,68,257
1657304822735,-85,-23,175
1657304822775,95,-165,-3
1657304822815,218,-304,-228
1657304822855,-22,-13,-353
1657304822895,-919,362,-143
1657304822935,-2048,-342,1901
1657304822975,-1991,-102,1155
1657304823015,-1119,-24,292
1657304823055,-1296,134,497
1657304823095,-696,107,192
1657304823135,-615,16,337
1657304823175,-513,289,301
1657304823215,-706,513,151
1657304823255,-722,855,-28
1657304823295,-1037,1092,134
1657304823335,-2048,767,795
1657304823375,-2048,347,1357
1657304823415,-2048,74,1415
1657304823455,-1548,-221,837
1657304823495,-866,104,737
1657304823535,-352,-63,645
1657304823575,-80,-220,274
1657304823615,-2,-211,102
1657304823655,-58,-369,37
1657304823695,-64,-538,-227
1657304823735,-209,-362,-80
1657304823775,-1300,-81,517
1657304823815,-2048,96,941
1657304823855,-2048,349,992
1657304823895,-1711,425,620
1657304823935,-1252,362,400
1657304823975,-863,178,252
1657304824015,-720,304,291
1657304824055,-558,416,242
1657304824095,-480,732,183
1657304824135,-427,1084,85
1657304824175,-921,633,42
1657304824215,-1729,459,338
1657304824255,-2048,390,985
1657304824295,-2048,564,1460
1657304824335,-1721,66,1040
1657304824375,-1233,-63,589
1657304824415,-535,-3,372
1657304824455,-151,-226,143
1657304824495,-64,-356,133
1657304824535,124,-326,81
1657304824575,359,-639,-269
1657304824615,171,-353,-169
1657304824655,-1246,-157,1079
1657304824695,-2048,65,1702
1657304824735,-2048,237,1204
1657304824775,-1730,110,528
1657304824815,-1149,135,343
1657304824855,-734,252,347
1657304824895,-473,472,348
1657304824935,-316,512,204
1657304824975,-180,560,-18
1657304825015,-480,691,341
1657304825055,-1461,1037,656
1657304825095,-2048,801,1549
1657304825135,-2048,202,2046
1657304825175,-1872,-333,1779
1657304825215,-1206,-328,1198
1657304825255,-672,-208,883
1657304825295,-324,-71,507
1657304825335,-114,-133,303
1657304825375,-103,-274,136
1657304825415,-8,-312,85
1657304825455,116,-369,86
1657304825495,-16,-518,63
1657304825535,-1560,-491,747
1657304825575,-2048,235,1353
1657304825615,-1660,321,828
1657304825655,-1116,281,638
1657304825695,-1567,189,725
1657304825735,-1070,530,441
1657304825775,-681,619,276
1657304825815,-445,638,105
1657304825855,-243,638,-33
1657304825895,-479,713,54
1657304825935,-1197,1013,478
1657304825975,-2048,970,1536
1657304826015,-2048,666,1959
1657304826055,-1366,-92,1330
1657304826095,-761,-148,780
1657304826135,-277,-168,374
1657304826175,-75,-195,49
1657304826215,-103,-248,54
1657304826255,-48,-208,50
1657304826295,13,-232,17
1657304826335,-57,-350,-71
1657304826375,-2004,-343,1054
1657304826415,-2048,343,1835
1657304826455,-1770,502,936
1657304826495,-1334,497,531
1657304826535,-1076,428,243
1657304826575,-763,364,-5
1657304826615,-587,371,-107
1657304826655,-420,396,-96
1657304826695,-211,376,-73
1657304826735,-212,415,-106
1657304826775,-2034,806,425
1657304826815,-2048,2047,2046
1657304826855,-1512,22,2021
1657304826895,-611,-523,259
1657304826935,-117,-587,-291
1657304826975,-124,-365,-348
1657304827015,-351,-245,-84
1657304827055,-419,-159,126
1657304827095,-156,-106,270
1657304827135,-143,-179,337
1657304827175,-861,-99,549
1657304827215,-2048,3,1755
1657304827255,-2048,260,1688
1657304827295,-1414,438,722
1657304827335,-1207,381,322
1657304827375,-823,431,141
1657304827415,-518,498,108
1657304827455,-335,531,98
1657304827495,-177,436,-44
1657304827535,-142,360,-79
1657304827575,-1042,684,104
1657304827615,-2048,1035,929
1657304827655,-2048,498,1657
1657304827695,-1433,80,870
1657304827735,-890,-130,334
1657304827775,-474,-97,158
1657304827815,-227,-109,57
1657304827855,-71,-159,-22
1657304827895,18,-175,-6
1657304827935,182,-347,-51
1657304827975,-157,-481,142
1657304828015,-2048,-334,1582
1657304828055,-2048,-1,2046
1657304828095,-1741,199,1284
1657304828135,-1107,278,536
1657304828175,-1413,180,-558
1657304828215,-907,197,-274
1657304828255,-446,131,184
1657304828295,-92,485,209
1657304828335,179,537,6
1657304828375,-331,807,-23
1657304828415,-2048,1372,1638
1657304828455,-2048,778,2046
1657304828495,-1505,-400,1698
1657304828535,-574,-409,524
1657304828575,-167,-277,158
1657304828615,19,-180,14
1657304828655,50,-193,-64
1657304828695,-46,-200,-29
1657304828735,-198,-354,57
1657304828775,-195,-362,88
1657304828815,-1744,-406,994
1657304828855,-2048,-178,1623
1657304828895,-2048,110,1161
1657304828935,-1427,216,439
1657304828975,-1021,295,151
1657304829015,-736,356,-70
1657304829055,-615,351,-21
1657304829095,-463,374,92
1657304829135,-142,523,-49
1657304829175,-607,628,-35
1657304829215,-2048,943,953
1657304829255,-2048,278,1460
1657304829295,-1710,-226,756
1657304829335,-820,-216,463
1657304829375,-312,-134,343
1657304829415,-101,-119,145
1657304829455,-28,-184,50
1657304829495,-81,-218,70
1657304829535,-279,-184,68
1657304829575,-1106,-47,217
1657304829615,-2048,119,639
1657304829655,-2048,-96,845
1657304829695,-1470,11,285
1657304829735,-1063,41,-60
1657304829775,-889,8,-114
1657304829815,-591,183,-158
1657304829855,-429,312,-37
1657304829895,-323,472,89
1657304829935,-521,525,209
1657304829975,-1205,842,164
1657304830015,-2048,850,407
1657304830055,-2048,595,324
1657304830095,-2015,93,557
1657304830135,-751,-99,363
1657304830175,-545,-155,95
1657304830215,-633,-154,-34
1657304830255,-630,-139,-322
1657304830295,-814,-63,-212
1657304830335,-929,42,113
1657304830375,-1130,411,67
1657304830415,-1434,964,-174
1657304830455,-1594,913,318
1657304830495,-957,942,294
1657304830535,-171,1222,308
1657304830575,-482,850,-7
1657304830615,-144,527,-206
1657304830655,225,356,-208
1657304830695,51,208,-3
1657304830735,-281,282,343
1657304830775,-338,820,577
1657304830815,146,1277,329
1657304830855,-109,1564,392
1657304830895,-168,1522,454
1657304830935,-235,1081,547
1657304830975,-2,626,312
1657304831015,-91,250,245
1657304831055,348,111,35
1657304831095,183,-191,19
1657304831135,-398,-163,308
1657304831175,-840,245,357
1657304831215,-1340,480,420
1657304831255,-1803,316,711
1657304831295,-1572,231,469
1657304831335,-1434,14,829
1657304831375,-852,108,556
1657304831415,-633,262,177
1657304831455,-958,451,448
1657304831495,-1250,537,968
1657304831535,-1015,797,863
1657304831575,-2048,702,1280
1657304831615,-2048,-4,1017
1657304831655,-1821,-216,543
1657304831695,-1006,-265,556
1657304831735,-440,-161,496
1657304831775,-219,-93,269
1657304831815,-129,-178,67
1657304831855,-44,-280,12
1657304831895,-271,-371,-74
1657304831935,-191,-212,-338
1657304831975,-2047,-293,490
1657304832015,-2048,-201,1207
1657304832055,-1646,106,565
1657304832095,-914,216,226
1657304832135,-558,180,-169
1657304832175,-574,197,-85
1657304832215,-600,327,348
1657304832255,-746,360,505
1657304832295,-1003,412,448
1657304832335,-1914,535,885
1657304832375,-2048,71,787
1657304832415,-1831,-178,475
1657304832455,-1002,-52,453
1657304832495,-785,-102,513
1657304832535,-364,-160,238
1657304832575,-228,-269,100
1657304832615,-27,-285,6
1657304832655,194,-494,-96
1657304832695,356,-505,-255
1657304832735,-1304,-606,190
1657304832775,-2048,-730,1107
1657304832815,-2048,-58,243
1657304832855,-1324,6,150
1657304832895,-751,258,-101
1657304832935,-513,344,-54
1657304832975,-397,444,99
1657304833015,-316,412,182
1657304833055,-367,569,169
1657304833095,-1874,547,332
1657304833135,-2048,532,-106
1657304833175,-1896,67,245
1657304833215,-1097,-7,376
1657304833255,-815,-145,5
1657304833295,-383,-87,-151
1657304833335,-199,-191,-102
1657304833375,-108,-193,-21
1657304833415,-197,-304,9
1657304833455,-308,-289,-265
1657304833495,-1234,-348,-599
1657304833535,-2048,121,154
1657304833575,-2048,193,502
1657304833615,-1178,285,495
1657304833655,-1032,221,-100
1657304833695,-690,367,-413
1657304833735,-423,22,-185
1657304833775,65,359,140
1657304833815,518,261,-49
1657304833855,-179,965,353
1657304833895,-2048,778,921
1657304833935,-2048,335,190
1657304833975,-1645,-81,-182
1657304834015,-885,-189,-83
1657304834055,-432,-152,-29
1657304834095,-260,-117,-74
1657304834135,-165,-131,-48
1657304834175,-257,-163,-41
1657304834215,-419,-305,-94
1657304834255,-838,-350,-141
1657304834295,-2048,-244,179
1657304834335,-2048,71,480
1657304834375,-1391,203,219
1657304834415,-1130,304,-125
1657304834455,-970,304,-189
1657304834495,-647,379,-93
1657304834535,-403,459,60
1657304834575,-104,479,101
1657304834615,-145,699,213
1657304834655,-1936,716,593
1657304834695,-2048,356,437
1657304834735,-1747,160,371
1657304834775,-1196,-52,102
1657304834815,-755,57,83
1657304834855,-418,46,56
1657304834895,-210,15,57
1657304834935,-192,-117,75
1657304834975,-67,-177,124
1657304835015,-422,-314,50
1657304835055,-2048,-259,380
1657304835095,-2048,154,775
1657304835135,-1639,435,611
1657304835175,-1306,477,216
1657304835215,-1077,371,10
1657304835255,-676,419,-12
1657304835295,-466,423,98
1657304835335,-132,350,31
1657304835375,-73,328,-138
1657304835415,-1004,987,269
1657304835455,-2048,776,1237
1657304835495,-2048,680,1328
1657304835535,-1325,323,627
1657304835575,-780,163,187
1657304835615,-389,117,124
1657304835655,-188,20,138
1657304835695,-31,-119,125
1657304835735,-17,-237,43
1657304835775,91,-475,-128
1657304835815,-458,-233,97
1657304835855,-2048,-151,1402
1657304835895,-2048,-251,1247
1657304835935,-1032,237,574
1657304835975,-826,367,277
1657304836015,-568,313,-50
1657304836055,-385,299,-48
1657304836095,-159,336,96
1657304836135,-38,423,157
1657304836175,-750,838,455
1657304836215,-1722,1086,778
1657304836255,-2048,729,1205
1657304836295,-1830,-152,788
1657304836335,-874,-358,429
1657304836375,-358,-227,201
1657304836415,-28,-31,199
1657304836455,119,-107,106
1657304836495,-70,-516,-64
1657304836535,262,-285,251
1657304836575,-426,-268,635
1657304836615,-2048,-608,1006
1657304836655,-2048,-83,895
1657304836695,-1709,65,569
1657304836735,-1101,189,386
1657304836775,-888,292,278
1657304836815,-677,205,223
1657304836855,-379,125,211
1657304836895,-134,174,147
1657304836935,48,383,71
1657304836975,-808,1181,141
1657304837015,-2048,1006,595
1657304837055,-2048,666,593
1657304837095,-1510,65,321
1657304837135,-159,-121,383
1657304837175,237,-128,145
1657304837215,222,-390,107
1657304837255,112,-777,271
1657304837295,124,-681,465
1657304837335,544,-768,-123
1657304837375,-2048,-1293,12
1657304837415,-2048,-1096,1039
1657304837455,-1774,-419,1063
1657304837495,-1266,-414,1291
1657304837535,-1086,-467,843
1657304837575,-950,-316,502
1657304837615,-720,529,815
1657304837655,-1057,945,704
1657304837695,-1641,600,283
1657304837735,-1756,327,297
1657304837775,-2048,-137,1450
1657304837815,-2048,-1896,1341
1657304837855,-1976,-1516,950
1657304837895,-1009,-1007,691
1657304837935,-240,-812,185
1657304837975,98,-655,-137
1657304838015,241,-726,-45
1657304838055,524,-565,-72
1657304838095,758,-436,-117
1657304838135,586,-767,-273
1657304838175,-1951,-1521,649
1657304838215,-2048,-1657,1112
1657304838255,-2048,-629,632
1657304838295,-1240,-263,665
1657304838335,-603,165,624
1657304838375,-516,509,590
1657304838415,-849,609,421
1657304838455,-637,625,334
1657304838495,-978,649,500
1657304838535,-1918,623,1477
1657304838575,-2048,-56,1580
1657304838615,-2048,-839,1176
1657304838655,-1475,-1022,974
1657304838695,-454,-862,413
1657304838735,-224,-883,219
1657304838775,344,-774,-520
1657304838815,76,-306,-159
1657304838855,-54,-318,257
1657304838895,-62,-274,14
1657304838935,-1698,245,492
1657304838975,-2048,1430,1657
1657304839015,-948,1387,1566
1657304839055,-123,752,1708
1657304839095,-523,791,975
1657304839135,-649,827,360
1657304839175,-357,709,320
1657304839215,12,425,117
1657304839255,-33,278,83
1657304839295,-908,670,242
1657304839335,-1433,1172,1132
1657304839375,-1242,1437,917
1657304839415,-1170,897,858
1657304839455,-604,466,558
1657304839495,-291,-58,163
1657304839535,-308,-439,81
1657304839575,-51,-290,108
1657304839615,60,-26,150
1657304839655,68,-68,70
1657304839695,-1015,-79,-110
1657304839735,-2048,319,1220
1657304839775,-2048,379,876
1657304839815,-1044,364,66
1657304839855,-856,263,-8
1657304839895,-565,184,-222
1657304839935,-297,147,-423
1657304839975,-225,223,-135
1657304840015,-119,329,-79
1657304840055,-304,534,-272
1657304840095,-2048,1241,152
1657304840135,-2048,1059,248
1657304840175,-2048,322,398
1657304840215,-874,-46,277
1657304840255,-291,13,254
1657304840295,62,90,121
1657304840335,-34,13,-51
1657304840375,-394,-109,114
1657304840415,-575,-9,190
1657304840455,-791,1,187
1657304840495,-1667,125,367
1657304840535,-2048,316,781
1657304840575,-1525,478,470
1657304840615,-1098,341,148
1657304840655,-867,228,-118
1657304840695,-513,232,-194
1657304840735,-270,387,-62
1657304840775,-149,493,-4
1657304840815,-257,606,4
1657304840855,-1456,1439,690
1657304840895,-2048,1062,1374
1657304840935,-2048,485,1662
1657304840975,-1321,-250,915
1657304841015,-388,-471,195
1657304841055,112,-355,-236
1657304841095,247,-271,-98
1657304841135,248,-231,-43
1657304841175,-16,-292,-162
1657304841215,-974,-88,154
1657304841255,-2048,117,1545
1657304841295,-1715,482,1829
1657304841335,-973,489,1444
1657304841375,-708,595,775
1657304841415,-502,509,579
1657304841455,-306,475,564
1657304841495,-140,378,331
1657304841535,123,276,167
1657304841575,589,429,-144
1657304841615,280,1278,401
1657304841655,-2048,1170,2046
1657304841695,-2048,852,2046
1657304841735,-1073,145,826
1657304841775,-341,-210,80
1657304841815,-75,-272,-281
1657304841855,81,-267,-202
1657304841895,-99,-57,253
1657304841935,-772,298,996
1657304841975,-423,770,767
1657304842015,-372,1197,1391
1657304842055,-302,1372,1489
1657304842095,-63,1161,713
1657304842135,-275,973,185
1657304842175,-218,757,69
1657304842215,-99,535,312
1657304842255,70,399,192
1657304842295,152,354,68
1657304842335,-60,599,450
1657304842375,233,1343,537
1657304842415,205,1760,760
1657304842455,-88,1555,851
1657304842495,-142,1016,771
1657304842535,60,582,251
1657304842575,-12,154,270
1657304842615,-78,-99,360
1657304842655,-220,-252,-586
1657304842695,-504,-315,313
1657304842735,-928,155,398
1657304842775,-1954,433,459
1657304842815,-2048,1126,1185
1657304842855,-1718,1013,426
1657304842895,-1070,782,48
1657304842935,-852,556,-164
1657304842975,-578,449,-219
1657304843015,-348,382,10
1657304843055,-7,469,-4
1657304843095,192,432,-210
1657304843135,-594,1240,-407
1657304843175,-2048,1830,824
1657304843215,-2037,1423,1523
1657304843255,-772,978,962
1657304843295,-516,283,527
1657304843335,-361,-83,261
1657304843375,-144,-168,89
1657304843415,42,-223,89
1657304843455,86,-267,136
1657304843495,-549,-195,48
1657304843535,-2048,311,676
1657304843575,-2048,406,1312
1657304843615,-1384,896,853
1657304843655,-1110,885,603
1657304843695,-836,775,284
1657304843735,-487,558,1
1657304843775,-271,420,-87
1657304843815,-138,351,-61
1657304843855,-24,329,-13
1657304843895,-1198,1221,866
1657304843935,-1774,1256,1213
1657304843975,-2048,1004,1635
1657304844015,-894,350,1400
1657304844055,-372,51,654
1657304844095,-201,-14,176
1657304844135,-135,-51,-59
1657304844175,0,-145,5
1657304844215,-18,-178,199
1657304844255,-225,-81,-41
1657304844295,-1059,-338,31
1657304844335,-2048,-316,1772
1657304844375,-2020,0,1666
1657304844415,-797,370,772
1657304844455,-599,536,673
1657304844495,-212,578,292
1657304844535,-4,519,88
1657304844575,-72,518,173
1657304844615,116,589,242
1657304844655,-71,845,99
1657304844695,-2048,1305,1353
1657304844735,-2048,1118,2046
1657304844775,-1486,430,1814
1657304844815,-597,-7,705
1657304844855,-209,-69,97
1657304844895,-63,-109,-122
1657304844935,36,-211,-64
1657304844975,83,-261,-2
1657304845015,48,-287,-13
1657304845055,-1012,-55,359
1657304845095,-2048,93,1552
1657304845135,-1824,704,1703
1657304845175,-882,641,834
1657304845215,-524,609,308
1657304845255,-391,527,-27
1657304845295,-345,349,-25
1657304845335,-207,389,163
1657304845375,-190,508,283
1657304845415,-702,854,390
1657304845455,-1838,1431,934
1657304845495,-2048,967,1924
1657304845535,-1471,247,1788
1657304845575,-767,-118,831
1657304845615,-228,-126,247
1657304845655,-31,-100,-60
1657304845695,85,-152,-63
1657304845735,54,-167,38
1657304845775,-28,-288,93
1657304845815,-385,-112,82
1657304845855,-2048,207,1254
1657304845895,-2048,303,2028
1657304845935,-1308,456,1825
1657304845975,-832,572,482
1657304846015,-705,481,69
1657304846055,-508,296,22
1657304846095,-249,467,4
1657304846135,-125,537,87
1657304846175,54,592,-98
1657304846215,-977,1311,201
1657304846255,-2048,1381,1117
1657304846295,-2048,869,1692
1657304846335,-996,278,895
1657304846375,-433,35,294
1657304846415,-228,-1,32
1657304846455,-135,-76,31
1657304846495,-8,-110,-1
1657304846535,-37,-195,107
1657304846575,-277,-229,172
1657304846615,-1717,300,1093
1657304846655,-2048,451,1922
1657304846695,-1394,704,1325
1657304846735,-1064,592,539
1657304846775,-747,496,147
1657304846815,-497,413,-77
1657304846855,-289,396,49
1657304846895,-86,485,236
1657304846935,66,568,128
1657304846975,-699,935,209
1657304847015,-1886,1387,1112
1657304847055,-2041,1233,2046
1657304847095,-1019,721,1495
1657304847135,-581,212,744
1657304847175,-492,7,176
1657304847215,-242,-134,36
1657304847255,2,-86,205
1657304847295,85,-122,347
1657304847335,-25,-252,226
1657304847375,-1051,75,596
1657304847415,-2048,509,1311
1657304847455,-1959,925,1236
1657304847495,-1391,715,600
1657304847535,-1055,490,193
1657304847575,-711,369,-22
1657304847615,-419,316,-39
1657304847655,-146,393,103
1657304847695,117,500,158
1657304847735,-397,835,24
1657304847775,-1593,1394,663
1657304847815,-1961,1367,1251
1657304847855,-1383,1088,1276
1657304847895,-822,370,626
1657304847935,-429,73,208
1657304847975,-204,-62,65
1657304848015,33,-122,-51
1657304848055,74,-218,76
1657304848095,27,-331,113
1657304848135,-766,-89,354
1657304848175,-2048,184,1243
1657304848215,-2048,604,1326
1657304848255,-1377,600,680
1657304848295,-907,607,266
1657304848335,-685,500,108
1657304848375,-393,444,35
1657304848415,-177,411,82
1657304848455,53,407,27
1657304848495,-44,1053,108
1657304848535,-1582,1735,1127
1657304848575,-2048,1330,1854
1657304848615,-1744,660,1363
1657304848655,-541,41,503
1657304848695,-98,-117,245
1657304848735,78,-168,113
1657304848775,207,-178,72
1657304848815,114,-207,118
1657304848855,58,-279,66
1657304848895,-677,-296,174
1657304848935,-2048,243,1449
1657304848975,-2048,576,1613
1657304849015,-1250,614,511
1657304849055,-907,532,255
1657304849095,-611,438,-45
1657304849135,-288,435,-162
1657304849175,-103,602,-31
1657304849215,-29,705,64
1657304849255,-780,993,281
1657304849295,-1937,1292,591
1657304849335,-2048,1169,1135
1657304849375,-1795,673,1181
1657304849415,-812,242,536
1657304849455,-201,54,259
1657304849495,-39,-98,84
1657304849535,27,-250,50
1657304849575,-45,-320,71
1657304849615,-30,-349,77
1657304849655,-327,-91,269
1657304849695,-2048,546,1286
1657304849735,-2048,1252,1523
1657304849775,-1603,955,559
1657304849815,-963,870,143
1657304849855,-745,795,195
1657304849895,-370,743,19
1657304849935,-174,562,44
1657304849975,3,480,61
1657304850015,-124,545,13
1657304850055,-1249,1436,285
1657304850095,-1995,1791,720
1657304850135,-2048,1172,1162
1657304850175,-1157,376,470
1657304850215,-550,-14,190
1657304850255,-254,-180,47
1657304850295,-19,-231,37
1657304850335,94,-173,130
1657304850375,80,-183,153
1657304850415,-174,-323,-177
1657304850455,-2048,-151,1050
1657304850495,-2048,774,1341
1657304850535,-1608,922,678
1657304850575,-1142,832,352
1657304850615,-755,734,-63
1657304850655,-442,575,-205
1657304850695,-242,520,-91
1657304850735,-17,537,-146
1657304850775,58,416,-175
1657304850815,-845,1132,-273
1657304850855,-2048,1816,419
1657304850895,-2048,1695,1416
1657304850935,-1025,761,808
1657304850975,-476,112,343
