timestamp,accel_X,accel_Y,accel_Z
1657079095612,702,172,701
1657079095652,714,168,706
1657079095692,715,170,724
1657079095732,720,164,714
1657079095772,721,163,716
1657079095812,713,156,713
1657079095852,715,161,726
1657079095892,730,184,721
1657079095932,732,211,701
1657079095972,725,216,698
1657079096012,670,177,670
1657079096052,652,150,699
1657079096092,676,149,769
1657079096132,697,147,774
1657079096172,707,160,735
1657079096212,702,155,729
1657079096252,714,160,768
1657079096292,707,163,760
1657079096332,703,174,765
1657079096372,692,192,728
1657079096412,694,196,730
1657079096452,687,205,738
1657079096492,693,217,728
1657079096532,693,232,708
1657079096572,693,226,694
1657079096612,711,228,690
1657079096652,718,236,683
1657079096692,697,218,689
1657079096732,696,219,708
1657079096772,692,203,733
1657079096812,687,200,707
1657079096852,703,195,723
1657079096892,696,180,720
1657079096932,694,180,733
1657079096972,711,187,738
1657079097012,708,199,723
1657079097052,694,193,732
1657079097092,689,195,741
1657079097132,683,202,744
1657079097172,675,198,721
1657079097212,685,204,704
1657079097252,703,212,722
1657079097292,696,214,729
1657079097332,702,214,725
1657079097372,690,213,724
1657079097412,671,202,729
1657079097452,674,200,723
1657079097492,692,201,735
1657079097532,693,212,728
1657079097572,694,201,720
1657079097612,710,213,738
1657079097652,704,222,717
1657079097692,665,202,705
1657079097732,646,175,744
1657079097772,684,185,776
1657079097812,698,205,747
1657079097852,682,204,714
1657079097892,674,205,739
1657079097932,672,201,758
1657079097972,668,190,718
1657079098012,710,223,728
1657079098052,736,223,733
1657079098092,709,229,692
1657079098132,707,231,692
1657079098172,685,222,713
1657079098212,678,212,718
1657079098252,686,209,730
1657079098292,682,210,685
1657079098332,663,182,691
1657079098372,673,175,759
1657079098412,683,175,785
1657079098452,700,187,776
1657079098492,697,187,742
1657079098532,692,187,741
1657079098572,693,209,744
1657079098612,687,214,737
1657079098652,688,218,744
1657079098692,688,236,732
1657079098732,693,232,720
1657079098772,679,238,695
1657079098812,687,232,717
1657079098852,668,224,703
1657079098892,676,215,703
1657079098932,694,225,725
1657079098972,693,221,731
1657079099012,700,211,737
1657079099052,715,232,735
1657079099092,689,221,704
1657079099132,659,194,713
1657079099172,664,188,736
1657079099212,677,194,744
1657079099252,690,197,747
1657079099292,684,198,746
1657079099332,704,206,756
1657079099372,685,213,745
1657079099412,684,220,731
1657079099452,676,222,707
1657079099492,682,221,737
1657079099532,680,224,730
1657079099572,676,225,729
1657079099612,681,218,731
1657079099652,682,223,720
1657079099692,682,225,719
1657079099732,682,217,717
1657079099772,689,211,735
1657079099812,693,221,727
1657079099852,679,203,708
1657079099892,676,220,704
1657079099932,709,217,734
1657079099972,707,216,716
1657079100012,728,210,713
1657079100052,754,218,701
1657079100092,764,222,658
1657079100132,764,199,622
1657079100172,779,217,615
1657079100212,784,209,617
1657079100252,788,204,602
1657079100292,787,194,602
1657079100332,813,196,630
1657079100372,825,284,698
1657079100412,786,136,588
1657079100452,835,127,533
1657079100492,767,139,544
1657079100532,894,200,519
1657079100572,938,229,641
1657079100612,861,200,552
1657079100652,783,108,463
1657079100692,724,70,465
1657079100732,773,81,379
1657079100772,792,104,453
1657079100812,1038,151,599
1657079100852,1241,212,634
1657079100892,1114,255,332
1657079100932,953,325,94
1657079100972,914,267,17
1657079101012,1039,234,103
1657079101052,1202,51,-114
1657079101092,906,191,-168
1657079101132,838,248,-444
1657079101172,861,310,-277
1657079101212,1014,406,-347
1657079101252,982,462,-323
1657079101292,764,318,-186
1657079101332,699,286,-291
1657079101372,936,391,-588
1657079101412,1050,369,-804
1657079101452,997,31,-859
1657079101492,738,50,-973
1657079101532,719,-3,-916
1657079101572,485,-87,-504
1657079101612,460,-185,-459
1657079101652,431,-61,-507
1657079101692,567,12,-562
1657079101732,524,-75,-717
1657079101772,554,72,-1121
1657079101812,385,-7,-1049
1657079101852,457,-10,-924
1657079101892,496,21,-977
1657079101932,536,-42,-1086
1657079101972,439,-375,-718
1657079102012,337,-327,-698
1657079102052,397,-159,-888
1657079102092,394,364,-1177
1657079102132,308,-25,-1264
1657079102172,400,101,-1245
1657079102212,403,-78,-765
1657079102252,290,-137,-697
1657079102292,371,-26,-1010
1657079102332,347,-188,-613
1657079102372,447,-85,-939
1657079102412,308,-210,-984
1657079102452,449,-189,-1004
1657079102492,579,-121,-1024
1657079102532,520,-134,-821
1657079102572,611,-48,-681
1657079102612,629,-10,-651
1657079102652,467,-8,-564
1657079102692,426,-75,-620
1657079102732,577,151,-752
1657079102772,704,-37,-715
1657079102812,1161,115,-1244
1657079102852,1784,404,-1553
1657079102892,1367,299,-1105
1657079102932,819,206,-417
1657079102972,478,6,-293
1657079103012,438,43,-249
1657079103052,261,-30,-148
1657079103092,136,-92,-2
1657079103132,345,192,-243
1657079103172,180,179,-354
1657079103212,107,166,-227
1657079103252,1269,1018,-641
1657079103292,1793,1103,-601
1657079103332,1698,1029,-261
1657079103372,1879,806,-291
1657079103412,1206,268,-524
1657079103452,528,-26,-269
1657079103492,465,-123,18
1657079103532,651,-20,23
1657079103572,892,226,-15
1657079103612,1426,583,-234
1657079103652,1919,899,-544
1657079103692,1506,706,-391
1657079103732,940,309,-151
1657079103772,662,134,-37
1657079103812,698,167,-26
1657079103852,566,253,-113
1657079103892,503,314,-258
1657079103932,462,555,-349
1657079103972,461,809,-539
1657079104012,321,802,-512
1657079104052,697,709,-185
1657079104092,1708,1060,-626
1657079104132,1280,523,-778
1657079104172,887,128,-554
1657079104212,676,-90,-402
1657079104252,730,13,-177
1657079104292,779,-135,-2
1657079104332,722,37,-99
1657079104372,972,201,-358
1657079104412,1294,448,-577
1657079104452,1314,498,-849
1657079104492,1430,608,-681
1657079104532,1282,790,-383
1657079104572,684,552,-299
1657079104612,394,449,-189
1657079104652,196,429,-294
1657079104692,80,403,-397
1657079104732,118,550,-506
1657079104772,351,906,-788
1657079104812,617,1029,-1040
1657079104852,862,759,-1236
1657079104892,771,499,-984
1657079104932,381,91,-795
1657079104972,137,-133,-457
1657079105012,442,83,-345
1657079105052,847,387,-319
1657079105092,902,603,-931
1657079105132,870,600,-1020
1657079105172,849,994,-1020
1657079105212,-109,165,-1561
1657079105252,0,326,-619
1657079105292,603,663,-828
1657079105332,87,234,-858
1657079105372,33,293,-1045
1657079105412,218,227,-705
1657079105452,299,719,-789
1657079105492,100,468,-519
1657079105532,192,536,-580
1657079105572,838,722,-1286
1657079105612,140,372,-820
1657079105652,310,586,-901
1657079105692,454,507,-862
1657079105732,150,437,-907
1657079105772,312,591,-867
1657079105812,260,549,-783
1657079105852,223,598,-838
1657079105892,223,510,-852
1657079105932,202,562,-703
1657079105972,293,638,-1007
1657079106012,162,630,-828
1657079106052,261,501,-853
1657079106092,396,551,-907
1657079106132,247,532,-778
1657079106172,323,563,-703
1657079106212,183,736,-655
1657079106252,462,704,-534
1657079106292,362,635,-823
1657079106332,156,561,-724
1657079106372,368,766,-816
1657079106412,260,744,-683
1657079106452,367,958,-980
1657079106492,368,919,-1036
1657079106532,582,650,-832
1657079106572,1023,589,-881
1657079106612,769,135,-295
1657079106652,369,-45,15
1657079106692,367,277,-339
1657079106732,567,344,-422
1657079106772,939,888,-495
1657079106812,857,821,-548
1657079106852,1351,1116,-1086
1657079106892,1418,1131,-1054
1657079106932,782,726,-716
1657079106972,473,487,-480
1657079107012,315,265,-206
1657079107052,283,331,-79
1657079107092,57,344,-134
1657079107132,-10,673,-27
1657079107172,-359,899,114
1657079107212,181,1519,322
1657079107252,1150,1629,494
1657079107292,1864,709,1496
1657079107332,2046,1373,728
1657079107372,1492,163,243
1657079107412,1721,405,-137
1657079107452,1433,314,-600
1657079107492,988,182,-666
1657079107532,979,354,-412
1657079107572,1313,495,82
1657079107612,1786,1102,131
1657079107652,2046,1505,361
1657079107692,1618,1336,600
1657079107732,941,1086,528
1657079107772,549,998,277
1657079107812,223,822,190
1657079107852,79,744,120
1657079107892,0,651,-27
1657079107932,-54,648,-138
1657079107972,-283,655,-272
1657079108012,-121,870,-301
1657079108052,759,1035,-270
1657079108092,1621,1208,-158
1657079108132,1857,921,-34
1657079108172,1634,399,28
1657079108212,1831,413,-154
1657079108252,1499,5,-326
1657079108292,1063,-263,-655
1657079108332,668,10,-660
1657079108372,723,67,-354
1657079108412,1194,172,-90
1657079108452,1904,453,-84
1657079108492,2046,1195,-569
1657079108532,1300,1069,-392
1657079108572,650,838,-193
1657079108612,203,538,-80
1657079108652,244,391,-110
1657079108692,392,355,-366
1657079108732,521,326,-669
1657079108772,488,384,-819
1657079108812,457,78,-760
1657079108852,832,-9,-790
1657079108892,1376,-67,-1078
1657079108932,1462,-289,-754
1657079108972,1107,-542,-538
1657079109012,892,-514,-407
1657079109052,665,-379,-443
1657079109092,533,-346,-532
1657079109132,719,-159,-419
1657079109172,754,-400,-162
1657079109212,1059,-562,-573
1657079109252,787,-846,-420
1657079109292,757,-885,-507
1657079109332,684,-723,-276
1657079109372,384,-526,-197
1657079109412,78,-656,-286
1657079109452,32,-530,-474
1657079109492,265,-647,-312
1657079109532,353,-780,-188
1657079109572,451,-552,-380
1657079109612,321,-519,-512
1657079109652,265,-694,-548
1657079109692,457,-910,-510
1657079109732,285,-752,-856
1657079109772,479,-772,-589
1657079109812,436,-636,-462
1657079109852,594,-447,-569
1657079109892,494,-732,-654
1657079109932,650,-827,-730
1657079109972,760,-668,-462
1657079110012,573,-996,-198
1657079110052,243,-1502,-175
1657079110092,625,-1269,-212
1657079110132,767,-730,-714
1657079110172,770,-749,-431
1657079110212,667,-746,-236
1657079110252,374,-743,-522
1657079110292,25,-530,-379
1657079110332,253,-696,-86
1657079110372,138,-489,-319
1657079110412,156,-787,-519
1657079110452,314,-713,-488
1657079110492,388,-1075,-643
1657079110532,430,-1282,-652
1657079110572,520,-1359,-686
1657079110612,332,-1152,-633
1657079110652,162,-914,-461
1657079110692,224,-623,-235
1657079110732,137,-456,-56
1657079110772,36,-466,-35
1657079110812,43,-624,-135
1657079110852,91,-1038,-600
1657079110892,110,-1371,-671
1657079110932,49,-1434,-685
1657079110972,89,-1249,-694
1657079111012,147,-992,-571
1657079111052,103,-778,-465
1657079111092,96,-652,-199
1657079111132,132,-564,-90
1657079111172,80,-553,-190
1657079111212,132,-675,-376
1657079111252,218,-829,-569
1657079111292,318,-1140,-605
1657079111332,355,-1331,-618
1657079111372,337,-1319,-689
1657079111412,293,-1085,-622
1657079111452,133,-901,-448
1657079111492,144,-703,-296
1657079111532,116,-577,-74
1657079111572,126,-457,-14
1657079111612,113,-486,-97
1657079111652,-15,-962,-438
1657079111692,28,-1405,-509
1657079111732,37,-1668,-535
1657079111772,10,-1576,-643
1657079111812,58,-1273,-553
1657079111852,158,-805,-311
1657079111892,129,-641,-1
1657079111932,138,-420,84
1657079111972,136,-288,-37
1657079112012,64,-565,-190
1657079112052,280,-1023,-501
1657079112092,361,-1511,-712
1657079112132,401,-1702,-666
1657079112172,324,-1423,-615
1657079112212,85,-1020,-413
1657079112252,121,-745,-174
1657079112292,110,-402,-2
1657079112332,-17,-299,98
1657079112372,27,-527,-87
1657079112412,-40,-1226,-502
1657079112452,-91,-1467,-560
1657079112492,-45,-1534,-521
1657079112532,-19,-1290,-589
1657079112572,49,-1035,-464
1657079112612,53,-823,-258
1657079112652,52,-633,-49
1657079112692,20,-481,-13
1657079112732,72,-489,-183
1657079112772,118,-837,-465
1657079112812,210,-1106,-642
1657079112852,292,-1402,-669
1657079112892,350,-1426,-615
1657079112932,183,-1173,-625
1657079112972,128,-919,-363
1657079113012,119,-624,-200
1657079113052,54,-499,-22
1657079113092,60,-379,34
1657079113132,53,-663,-89
1657079113172,-49,-1308,-425
1657079113212,10,-1574,-648
1657079113252,41,-1584,-654
1657079113292,-42,-1289,-635
1657079113332,31,-954,-459
1657079113372,43,-683,-233
1657079113412,84,-553,-66
1657079113452,120,-386,36
1657079113492,122,-467,-109
1657079113532,135,-891,-527
1657079113572,369,-1201,-597
1657079113612,457,-1407,-656
1657079113652,685,-1424,-679
1657079113692,290,-1104,-640
1657079113732,201,-817,-400
1657079113772,179,-592,-154
1657079113812,115,-479,-50
1657079113852,97,-465,-12
1657079113892,-26,-585,13
1657079113932,-48,-1258,-416
1657079113972,-2,-1439,-580
1657079114012,9,-1561,-636
1657079114052,71,-1416,-650
1657079114092,-29,-1160,-605
1657079114132,0,-762,-469
1657079114172,45,-660,-258
1657079114212,94,-652,-129
1657079114252,140,-572,-165
1657079114292,60,-617,-240
1657079114332,104,-786,-496
1657079114372,220,-886,-599
1657079114412,392,-1205,-651
1657079114452,334,-1366,-774
1657079114492,329,-1185,-734
1657079114532,159,-987,-553
1657079114572,17,-782,-439
1657079114612,62,-615,-293
1657079114652,67,-556,-138
1657079114692,172,-509,-61
1657079114732,111,-683,-230
1657079114772,199,-1059,-489
1657079114812,117,-1408,-555
1657079114852,145,-1492,-568
1657079114892,184,-1357,-533
1657079114932,199,-1093,-511
1657079114972,165,-853,-422
1657079115012,154,-665,-227
1657079115052,131,-585,-77
1657079115092,219,-598,-96
1657079115132,234,-596,-259
1657079115172,247,-852,-463
1657079115212,416,-1107,-558
1657079115252,560,-1308,-615
1657079115292,422,-1358,-591
1657079115332,373,-1082,-628
1657079115372,229,-872,-460
1657079115412,154,-648,-354
1657079115452,114,-516,-122
1657079115492,116,-556,-41
1657079115532,69,-568,-100
1657079115572,-14,-900,-332
1657079115612,55,-1250,-622
1657079115652,136,-1465,-630
1657079115692,142,-1370,-589
1657079115732,94,-1172,-577
1657079115772,165,-957,-526
1657079115812,116,-762,-362
1657079115852,65,-641,-171
1657079115892,99,-637,-68
1657079115932,121,-524,-167
1657079115972,135,-741,-440
1657079116012,259,-961,-470
1657079116052,327,-1239,-534
1657079116092,426,-1340,-545
1657079116132,361,-1345,-614
1657079116172,202,-1082,-522
1657079116212,126,-819,-330
1657079116252,94,-661,-167
1657079116292,88,-585,-10
1657079116332,35,-503,-80
1657079116372,123,-673,-131
1657079116412,73,-1143,-487
1657079116452,86,-1394,-592
1657079116492,106,-1443,-662
1657079116532,80,-1264,-639
1657079116572,107,-1023,-535
1657079116612,124,-832,-391
1657079116652,65,-610,-228
1657079116692,109,-568,-90
1657079116732,116,-620,-34
1657079116772,39,-838,-369
1657079116812,225,-861,-565
1657079116852,268,-1222,-569
1657079116892,331,-1296,-654
1657079116932,313,-1198,-747
1657079116972,156,-999,-610
1657079117012,77,-764,-474
1657079117052,54,-682,-292
1657079117092,26,-551,-54
1657079117132,128,-548,0
1657079117172,-15,149,-105
1657079117212,440,-1026,-242
1657079117252,151,-1364,-615
1657079117292,426,-1494,-269
1657079117332,539,-1241,-213
1657079117372,399,-904,-333
1657079117412,236,-728,-415
1657079117452,328,-353,-388
1657079117492,397,-264,-323
1657079117532,626,-155,-67
1657079117572,809,-251,156
1657079117612,791,-301,129
1657079117652,785,-568,-181
1657079117692,1451,-612,-56
1657079117732,1867,-712,164
1657079117772,1683,-683,441
1657079117812,1244,-574,322
1657079117852,883,-459,36
1657079117892,641,-299,-50
1657079117932,435,-309,66
1657079117972,404,-280,144
1657079118012,472,-311,30
1657079118052,748,-787,-86
1657079118092,1551,-992,111
1657079118132,1865,-873,230
1657079118172,1421,-541,88
1657079118212,906,-211,0
1657079118252,492,-5,-92
1657079118292,350,112,-87
1657079118332,469,210,50
1657079118372,728,337,177
1657079118412,576,424,174
1657079118452,318,263,-40
1657079118492,990,379,310
1657079118532,1366,490,701
1657079118572,1099,463,592
1657079118612,1105,568,416
1657079118652,954,408,308
1657079118692,953,258,309
1657079118732,1084,157,537
1657079118772,1186,199,513
1657079118812,1051,311,459
1657079118852,1122,624,623
1657079118892,1574,1485,783
1657079118932,1550,1706,752
1657079118972,1190,1517,727
1657079119012,712,1216,517
1657079119052,339,882,276
1657079119092,161,660,66
1657079119132,38,520,-98
1657079119172,-25,573,-206
1657079119212,-225,802,-218
1657079119252,-535,878,-180
1657079119292,-294,1049,124
1657079119332,591,1753,332
1657079119372,682,1706,514
1657079119412,957,1662,676
1657079119452,851,1238,1035
1657079119492,937,746,960
1657079119532,1099,410,579
1657079119572,1300,429,-17
1657079119612,891,541,-266
1657079119652,863,983,-154
1657079119692,1208,1958,-214
1657079119732,948,2045,407
1657079119772,946,1972,905
1657079119812,545,1501,1062
1657079119852,238,1240,723
1657079119892,148,1092,347
1657079119932,166,917,152
1657079119972,135,906,93
1657079120012,-127,1058,-66
1657079120052,-499,1083,-70
1657079120092,-690,717,-53
1657079120132,-23,1150,144
1657079120172,976,1507,99
1657079120212,657,1178,302
1657079120252,938,1142,614
1657079120292,1588,906,762
1657079120332,1124,280,582
1657079120372,1393,337,318
1657079120412,1303,100,154
1657079120452,1284,587,-19
1657079120492,1615,1174,-127
1657079120532,1794,1534,108
1657079120572,1611,1295,868
1657079120612,1134,1250,1218
1657079120652,780,1244,891
1657079120692,473,1024,667
1657079120732,236,898,427
1657079120772,68,800,297
1657079120812,-9,737,84
1657079120852,-162,739,-46
1657079120892,-383,713,-130
1657079120932,-240,836,-96
1657079120972,704,1302,-26
1657079121012,801,1348,91
1657079121052,885,1316,285
1657079121092,915,1146,398
1657079121132,884,777,754
1657079121172,1387,703,675
1657079121212,1021,232,547
1657079121252,1148,634,297
1657079121292,1217,945,193
1657079121332,1378,1240,154
1657079121372,1357,1606,218
1657079121412,1170,1587,430
1657079121452,756,1309,685
1657079121492,505,1102,706
1657079121532,318,1050,529
1657079121572,216,971,313
1657079121612,138,811,206
1657079121652,72,608,125
1657079121692,-36,617,62
1657079121732,-357,735,33
1657079121772,-419,817,-48
1657079121812,829,1613,-82
1657079121852,1087,1437,93
1657079121892,850,904,339
1657079121932,735,602,406
1657079121972,1247,801,264
1657079122012,1205,164,478
1657079122052,1079,52,238
1657079122092,1023,261,-44
1657079122132,1079,620,31
1657079122172,1443,1082,362
1657079122212,1670,1474,690
1657079122252,1446,1391,821
1657079122292,837,1220,545
1657079122332,494,1044,300
1657079122372,425,951,229
1657079122412,265,844,137
1657079122452,60,744,-2
1657079122492,-207,555,-99
1657079122532,-258,720,-83
1657079122572,-436,818,14
1657079122612,185,1414,114
1657079122652,1402,1922,22
1657079122692,1304,1524,187
1657079122732,1004,764,641
1657079122772,1081,457,672
1657079122812,1083,245,414
1657079122852,1141,91,238
1657079122892,979,116,16
1657079122932,800,226,-19
1657079122972,1066,767,224
1657079123012,1345,1323,338
1657079123052,1305,1570,417
1657079123092,1171,1573,508
1657079123132,827,1373,447
1657079123172,464,1150,218
1657079123212,207,892,110
1657079123252,55,609,82
1657079123292,51,423,16
1657079123332,214,432,-25
1657079123372,420,705,5
1657079123412,783,941,-169
1657079123452,1613,1120,-346
1657079123492,1698,1042,-390
1657079123532,1258,573,-412
1657079123572,661,299,-660
1657079123612,502,175,-624
1657079123652,363,64,-478
1657079123692,296,211,-538
1657079123732,373,357,-373
1657079123772,420,467,-544
1657079123812,562,470,-677
1657079123852,519,347,-775
1657079123892,679,299,-943
1657079123932,431,381,-1027
1657079123972,660,608,-818
1657079124012,540,511,-776
1657079124052,447,276,-584
1657079124092,469,163,-617
1657079124132,567,386,-609
1657079124172,504,482,-550
1657079124212,450,402,-537
1657079124252,557,473,-525
1657079124292,677,658,-682
1657079124332,836,732,-682
1657079124372,803,849,-949
1657079124412,659,589,-744
1657079124452,463,254,-583
1657079124492,569,320,-509
1657079124532,601,381,-636
1657079124572,653,308,-457
1657079124612,754,280,-409
1657079124652,955,313,-401
1657079124692,933,298,-636
1657079124732,959,394,-629
1657079124772,1079,736,-635
1657079124812,710,560,-682
1657079124852,485,256,-526
1657079124892,548,394,-522
1657079124932,555,510,-588
1657079124972,633,426,-441
1657079125012,664,505,-484
1657079125052,726,449,-435
1657079125092,810,574,-591
1657079125132,831,461,-436
1657079125172,868,536,-584
1657079125212,1036,831,-695
1657079125252,872,554,-694
1657079125292,876,407,-549
1657079125332,746,483,-676
1657079125372,998,488,-442
1657079125412,1009,318,-469
1657079125452,1171,703,-629
1657079125492,1087,-128,-257
1657079125532,736,-765,-612
1657079125572,516,-817,-487
1657079125612,224,-603,-245
1657079125652,193,-563,-158
1657079125692,38,-783,-137
1657079125732,-312,-717,-429
1657079125772,238,-613,-255
1657079125812,364,-552,-69
1657079125852,293,-519,-356
1657079125892,209,-934,-449
1657079125932,311,-946,-738
1657079125972,383,-1100,-626
1657079126012,410,-1200,-662
1657079126052,296,-1143,-621
1657079126092,196,-951,-471
1657079126132,226,-726,-349
1657079126172,262,-562,-302
1657079126212,303,-537,-245
1657079126252,288,-515,-294
1657079126292,253,-702,-287
1657079126332,210,-1100,-400
1657079126372,320,-1339,-304
1657079126412,454,-1336,-472
1657079126452,312,-1197,-556
1657079126492,210,-1084,-444
1657079126532,187,-891,-413
1657079126572,192,-775,-313
1657079126612,228,-664,-233
1657079126652,353,-710,-217
1657079126692,275,-668,-357
1657079126732,136,-776,-410
1657079126772,164,-845,-520
1657079126812,335,-881,-643
1657079126852,495,-1075,-607
1657079126892,392,-1127,-675
1657079126932,274,-1114,-663
1657079126972,179,-957,-591
1657079127012,197,-759,-402
1657079127052,311,-659,-248
1657079127092,326,-525,-259
1657079127132,248,-459,-320
1657079127172,195,-715,-367
1657079127212,73,-983,-406
1657079127252,216,-1382,-393
1657079127292,366,-1311,-514
1657079127332,303,-1141,-619
1657079127372,101,-1094,-550
1657079127412,141,-905,-459
1657079127452,217,-820,-269
1657079127492,309,-703,-135
1657079127532,343,-623,-163
1657079127572,153,-534,-369
1657079127612,230,-737,-362
1657079127652,277,-811,-505
1657079127692,458,-1113,-603
1657079127732,502,-1210,-720
1657079127772,343,-1262,-733
1657079127812,256,-1074,-605
1657079127852,237,-836,-412
1657079127892,244,-625,-244
1657079127932,295,-541,-215
1657079127972,361,-452,-213
1657079128012,350,-530,-183
1657079128052,205,-962,-303
1657079128092,239,-1304,-467
1657079128132,430,-1371,-401
1657079128172,559,-1240,-476
1657079128212,260,-1120,-465
1657079128252,147,-970,-423
1657079128292,245,-801,-344
1657079128332,346,-696,-235
1657079128372,313,-659,-92
1657079128412,309,-552,-159
1657079128452,179,-726,-490
1657079128492,144,-974,-486
1657079128532,467,-928,-625
1657079128572,617,-1129,-558
1657079128612,404,-1198,-686
1657079128652,262,-1041,-602
1657079128692,268,-808,-318
1657079128732,318,-645,-257
1657079128772,334,-634,-310
1657079128812,396,-467,-310
1657079128852,287,-349,-237
1657079128892,150,-664,-241
1657079128932,186,-1148,-316
1657079128972,417,-1314,-602
1657079129012,559,-1399,-432
1657079129052,652,-1193,-287
1657079129092,342,-834,-416
1657079129132,200,-651,-453
1657079129172,300,-495,-369
1657079129212,384,-273,-391
1657079129252,430,-177,-316
1657079129292,393,-467,-294
1657079129332,675,-687,-598
1657079129372,985,-689,-1012
1657079129412,1359,-656,-1046
1657079129452,982,-564,-1010
1657079129492,571,-621,-962
1657079129532,777,-575,-484
1657079129572,765,-524,-143
1657079129612,601,-353,-121
1657079129652,505,-373,-198
1657079129692,554,-545,-406
1657079129732,784,-961,-453
1657079129772,973,-1178,-604
1657079129812,928,-1141,-781
1657079129852,779,-872,-723
1657079129892,367,-616,-606
1657079129932,130,-560,-440
1657079129972,162,-433,-359
1657079130012,218,-452,-414
1657079130052,279,-583,-319
1657079130092,447,-548,-243
1657079130132,432,-529,-257
1657079130172,33,-973,-511
1657079130212,178,-1140,-663
1657079130252,397,-1409,-660
1657079130292,441,-1193,-821
1657079130332,41,-925,-735
1657079130372,3,-808,-381
1657079130412,154,-589,-286
1657079130452,324,-501,-233
1657079130492,259,-539,-218
1657079130532,261,-658,-299
1657079130572,93,-1044,-383
1657079130612,150,-1354,-429
1657079130652,258,-1428,-435
1657079130692,428,-1243,-466
1657079130732,278,-1033,-505
1657079130772,114,-881,-385
1657079130812,164,-738,-385
1657079130852,324,-644,-300
1657079130892,263,-714,-135
1657079130932,358,-598,-245
1657079130972,241,-601,-353
1657079131012,59,-759,-466
1657079131052,169,-993,-591
1657079131092,340,-1203,-757
1657079131132,499,-916,-810
1657079131172,294,-737,-636
1657079131212,-50,-389,-622
1657079131252,231,-279,-586
1657079131292,108,-45,-615
1657079131332,325,-51,-340
1657079131372,873,-6,-183
1657079131412,1037,-383,-444
1657079131452,1346,-1114,-752
1657079131492,1956,-1052,-710
1657079131532,2046,-735,-586
1657079131572,1613,-424,-706
1657079131612,1017,-189,-583
1657079131652,782,-93,-405
1657079131692,473,-36,-413
1657079131732,288,-45,-341
1657079131772,242,3,-292
1657079131812,170,86,-272
1657079131852,89,-33,-338
1657079131892,306,90,-514
1657079131932,420,-110,-531
1657079131972,483,176,-370
1657079132012,791,675,-250
1657079132052,722,904,21
1657079132092,619,1104,257
1657079132132,1063,1279,475
1657079132172,1777,915,959
1657079132212,1806,695,401
1657079132252,1971,441,150
1657079132292,2046,287,65
1657079132332,2045,525,-130
1657079132372,1995,558,473
1657079132412,2045,1021,965
1657079132452,1716,1539,522
1657079132492,1213,1327,533
1657079132532,691,1093,433
1657079132572,211,853,209
1657079132612,68,622,69
1657079132652,8,413,122
1657079132692,-27,340,54
1657079132732,-131,430,-43
1657079132772,-179,697,-123
1657079132812,295,1199,-3
1657079132852,1035,1547,106
1657079132892,1281,1695,61
1657079132932,877,1247,257
1657079132972,779,744,665
1657079133012,944,816,577
1657079133052,791,544,433
1657079133092,1109,619,325
1657079133132,1243,552,265
1657079133172,1119,686,71
1657079133212,1064,1010,-17
1657079133252,1221,1490,-51
1657079133292,1391,1725,423
1657079133332,1473,1781,989
1657079133372,1069,1568,1397
1657079133412,566,1506,979
1657079133452,236,1277,588
1657079133492,51,943,448
1657079133532,-91,712,308
1657079133572,-206,511,86
1657079133612,-268,527,-40
1657079133652,-266,581,-151
1657079133692,152,835,51
1657079133732,848,1396,158
1657079133772,1004,1229,238
1657079133812,1584,898,301
1657079133852,1348,621,426
1657079133892,1075,280,413
1657079133932,964,106,308
1657079133972,1095,3,226
1657079134012,972,-31,39
1657079134052,984,155,-62
1657079134092,1401,480,115
1657079134132,1987,1029,210
1657079134172,2046,1110,1017
1657079134212,1689,1171,1050
1657079134252,1138,1106,803
1657079134292,531,800,601
1657079134332,168,685,395
1657079134372,14,621,166
1657079134412,-114,494,-49
1657079134452,-135,506,-124
1657079134492,-292,647,-236
1657079134532,-184,888,-24
1657079134572,559,1375,398
1657079134612,871,1693,612
1657079134652,1014,1688,970
1657079134692,1912,1787,1260
1657079134732,1582,770,990
1657079134772,1439,409,461
1657079134812,1477,270,140
1657079134852,1125,41,-206
1657079134892,1036,296,-404
1657079134932,1290,454,31
1657079134972,1783,1049,624
1657079135012,1786,1361,688
1657079135052,1566,1484,915
1657079135092,1005,1240,735
1657079135132,616,913,703
1657079135172,276,633,522
1657079135212,106,661,368
1657079135252,-66,609,81
1657079135292,-83,525,-121
1657079135332,-274,582,-256
1657079135372,-153,766,8
1657079135412,235,1074,297
1657079135452,1663,1675,419
1657079135492,1333,1179,595
1657079135532,1509,1102,937
1657079135572,1380,435,915
1657079135612,1154,129,592
1657079135652,1154,77,367
1657079135692,1078,-84,142
1657079135732,973,-17,-97
1657079135772,1068,556,-26
1657079135812,1672,727,232
1657079135852,2046,1007,696
1657079135892,2046,1015,1105
1657079135932,1750,1022,1066
1657079135972,964,762,793
1657079136012,370,731,708
1657079136052,29,544,421
1657079136092,-93,475,171
1657079136132,-334,411,-107
1657079136172,-515,522,-231
1657079136212,-400,759,-120
1657079136252,-97,1063,402
1657079136292,1682,2047,892
1657079136332,1604,1700,938
1657079136372,935,1097,1152
1657079136412,1226,919,968
1657079136452,1224,573,621
1657079136492,1101,205,421
1657079136532,1150,247,177
1657079136572,990,283,-15
1657079136612,1041,765,77
1657079136652,1316,1210,236
1657079136692,1897,1717,792
1657079136732,1647,1701,1053
1657079136772,1436,1664,1478
1657079136812,820,1475,1018
1657079136852,193,1164,545
1657079136892,-146,666,371
1657079136932,-163,518,293
1657079136972,-239,363,70
1657079137012,-454,493,-186
1657079137052,-672,520,-350
1657079137092,-203,881,76
1657079137132,1770,1810,354
1657079137172,1684,1334,159
1657079137212,1589,1103,372
1657079137252,2046,677,473
1657079137292,1542,138,225
1657079137332,998,-103,45
1657079137372,777,-23,-182
1657079137412,652,50,-170
1657079137452,726,306,-15
1657079137492,1506,709,337
1657079137532,1989,996,299
1657079137572,1572,1127,197
1657079137612,1052,988,99
1657079137652,605,651,26
1657079137692,354,454,-8
1657079137732,263,382,19
1657079137772,254,362,54
1657079137812,288,445,35
1657079137852,331,626,50
1657079137892,333,948,114
1657079137932,895,1285,123
1657079137972,1173,1171,233
1657079138012,1132,916,353
1657079138052,936,543,342
1657079138092,811,364,305
1657079138132,889,299,165
1657079138172,865,134,79
1657079138212,936,43,119
1657079138252,919,97,101
1657079138292,901,503,90
1657079138332,1168,803,169
1657079138372,1370,1259,333
1657079138412,1244,1564,369
1657079138452,984,1301,398
1657079138492,673,906,441
1657079138532,410,703,307
1657079138572,266,672,212
1657079138612,157,610,164
1657079138652,211,653,148
1657079138692,232,696,134
1657079138732,48,745,188
1657079138772,79,915,142
1657079138812,413,1194,213
1657079138852,866,1457,246
1657079138892,935,1191,304
1657079138932,862,845,291
1657079138972,833,625,205
1657079139012,795,403,112
1657079139052,800,286,97
1657079139092,870,387,45
1657079139132,1019,844,26
1657079139172,1053,1272,154
1657079139212,1083,1464,193
1657079139252,1216,1413,563
1657079139292,1046,1153,660
1657079139332,622,893,492
1657079139372,397,707,340
1657079139412,224,639,216
1657079139452,129,645,143
1657079139492,78,641,68
1657079139532,118,658,130
1657079139572,43,657,217
1657079139612,276,810,232
1657079139652,464,939,304
1657079139692,650,1149,409
1657079139732,881,1099,465
1657079139772,1025,944,447
1657079139812,1047,802,426
1657079139852,1000,591,273
1657079139892,1042,452,173
1657079139932,1063,367,19
1657079139972,872,426,-218
1657079140012,750,539,-68
1657079140052,950,1013,28
1657079140092,1443,1536,684
1657079140132,1650,1331,1289
1657079140172,1303,1279,1378
1657079140212,901,1092,1016
1657079140252,534,752,660
1657079140292,323,513,368
1657079140332,188,361,192
1657079140372,46,248,72
1657079140412,43,331,-33
1657079140452,-140,459,-69
1657079140492,-55,718,-130
1657079140532,1002,1253,-25
1657079140572,967,1163,80
1657079140612,962,838,269
1657079140652,922,646,360
1657079140692,1023,536,410
1657079140732,1058,162,503
1657079140772,1247,132,504
1657079140812,1225,193,306
1657079140852,1283,533,168
1657079140892,1442,924,268
1657079140932,1696,927,745
1657079140972,1489,983,601
1657079141012,1424,1080,317
1657079141052,1102,854,127
1657079141092,594,810,-50
1657079141132,381,588,-230
1657079141172,142,498,-180
1657079141212,96,339,-96
1657079141252,257,465,-70
1657079141292,259,315,-86
1657079141332,155,210,-46
1657079141372,294,519,-152
1657079141412,877,918,-277
1657079141452,1385,1079,-331
1657079141492,1341,787,-315
1657079141532,1706,625,-247
1657079141572,1451,131,-88
1657079141612,1297,5,-321
1657079141652,1299,2,-489
1657079141692,1212,-91,-415
1657079141732,1142,6,-309
1657079141772,1061,269,-403
1657079141812,1124,481,-397
1657079141852,1309,545,-712
1657079141892,804,415,-811
1657079141932,518,353,-903
1657079141972,516,319,-726
1657079142012,275,-78,-349
1657079142052,186,-15,-493
1657079142092,419,-33,-419
1657079142132,318,-137,-620
1657079142172,388,-94,-1042
1657079142212,253,-168,-1036
1657079142252,265,-278,-751
1657079142292,171,-270,-1054
1657079142332,235,-353,-1000
1657079142372,422,-262,-1360
1657079142412,376,-340,-969
1657079142452,303,-335,-681
1657079142492,111,-395,-816
1657079142532,284,-368,-831
1657079142572,286,-340,-810
1657079142612,281,-333,-825
1657079142652,280,-297,-896
1657079142692,291,-295,-1045
1657079142732,407,-275,-1196
1657079142772,470,-310,-999
1657079142812,518,-352,-1294
1657079142852,401,-334,-937
1657079142892,305,-396,-944
1657079142932,122,-472,-646
1657079142972,236,-492,-566
1657079143012,214,-512,-703
1657079143052,286,-485,-674
1657079143092,328,-479,-894
1657079143132,301,-424,-977
1657079143172,353,-355,-951
1657079143212,401,-266,-986
1657079143252,391,-222,-1193
1657079143292,387,-217,-1369
1657079143332,253,-296,-1155
1657079143372,142,-491,-751
1657079143412,207,-519,-663
1657079143452,142,-647,-508
1657079143492,295,-565,-347
1657079143532,342,-464,-741
1657079143572,356,-580,-597
1657079143612,437,-695,-904
1657079143652,613,-697,-1087
1657079143692,610,-617,-1260
1657079143732,317,-467,-1040
1657079143772,127,-315,-655
1657079143812,15,-240,-619
1657079143852,66,-224,-709
1657079143892,334,-95,-1192
1657079143932,404,-163,-1286
1657079143972,168,-274,-949
1657079144012,83,-541,-264
1657079144052,238,-618,-1037
1657079144092,306,-788,-1067
1657079144132,441,-578,-1652
1657079144172,319,-445,-907
1657079144212,85,-426,-351
1657079144252,158,-297,-477
1657079144292,182,-296,-773
1657079144332,197,-322,-803
1657079144372,231,-464,-861
1657079144412,306,-633,-681
1657079144452,576,-706,-1257
1657079144492,669,-777,-1316
1657079144532,495,-735,-1242
1657079144572,357,-580,-841
1657079144612,29,-521,-638
1657079144652,7,-403,-316
1657079144692,8,-279,-269
1657079144732,89,-224,-405
1657079144772,146,-304,-697
1657079144812,271,-531,-802
1657079144852,587,-495,-1447
1657079144892,566,-719,-1574
1657079144932,412,-634,-1398
1657079144972,185,-727,-893
1657079145012,361,-688,-457
1657079145052,375,-497,-235
1657079145092,165,-421,-346
1657079145132,60,-385,-359
1657079145172,323,-368,-848
1657079145212,670,-588,-693
1657079145252,510,-737,-1374
1657079145292,571,-821,-1078
1657079145332,537,-679,-1305
1657079145372,416,-520,-816
1657079145412,218,-394,-617
1657079145452,110,-336,-344
1657079145492,-6,-275,-481
1657079145532,383,-73,-1585
1657079145572,460,-79,-1444
1657079145612,110,-217,-558
1657079145652,27,-455,-496
1657079145692,434,-585,-870
1657079145732,555,-742,-1316
1657079145772,435,-746,-1439
1657079145812,217,-672,-950
1657079145852,150,-496,-491
1657079145892,128,-317,-374
1657079145932,30,-306,-294
1657079145972,143,-319,-783
1657079146012,330,-469,-1129
1657079146052,278,-564,-772
1657079146092,386,-657,-893
1657079146132,411,-702,-946
1657079146172,365,-617,-1007
1657079146212,244,-345,-1070
1657079146252,331,-297,-1490
1657079146292,416,-139,-1398
1657079146332,339,-174,-823
1657079146372,140,-338,-485
1657079146412,43,-382,-219
1657079146452,99,-462,-521
1657079146492,189,-686,-593
1657079146532,327,-700,-970
1657079146572,436,-792,-795
1657079146612,396,-541,-1498
1657079146652,524,-522,-903
1657079146692,484,-506,-482
1657079146732,382,-453,-649
1657079146772,377,-417,-686
1657079146812,366,-420,-549
1657079146852,396,-417,-541
1657079146892,615,-719,-683
1657079146932,658,-834,-1168
1657079146972,920,-739,-1277
1657079147012,901,-465,-1077
1657079147052,610,-347,-819
1657079147092,427,-289,-579
1657079147132,428,-178,-391
1657079147172,319,-185,-209
1657079147212,378,42,-264
1657079147252,267,93,-359
1657079147292,19,129,-353
1657079147332,-41,237,-434
1657079147372,259,379,-606
1657079147412,1456,1352,-1137
1657079147452,1038,657,-1138
1657079147492,1399,989,-874
1657079147532,1087,541,-566
1657079147572,878,304,-322
1657079147612,810,217,-143
1657079147652,976,221,-100
1657079147692,966,98,205
1657079147732,1348,443,324
1657079147772,1210,607,90
1657079147812,1432,881,-39
1657079147852,1515,1054,105
1657079147892,1238,953,96
1657079147932,734,823,0
1657079147972,368,620,-107
1657079148012,248,539,-111
1657079148052,185,513,-136
1657079148092,251,666,-270
1657079148132,216,698,-310
1657079148172,105,802,-165
1657079148212,76,911,-17
1657079148252,248,1326,20
1657079148292,715,1671,-1
1657079148332,715,1403,332
1657079148372,727,1052,614
1657079148412,902,822,571
1657079148452,1058,557,394
1657079148492,1096,365,27
1657079148532,1020,356,-271
1657079148572,773,504,-154
1657079148612,748,882,155
1657079148652,984,1711,97
1657079148692,928,2001,195
1657079148732,854,1642,759
1657079148772,615,1394,795
1657079148812,96,1006,468
1657079148852,-337,666,306
1657079148892,-407,445,-83
1657079148932,-285,406,-13
1657079148972,-190,636,149
1657079149012,-52,1398,253
1657079149052,53,1386,586
1657079149092,292,1506,811
1657079149132,532,1448,703
1657079149172,633,1186,664
1657079149212,797,1049,463
1657079149252,923,715,324
1657079149292,1040,494,-112
1657079149332,957,466,-574
1657079149372,940,261,-285
1657079149412,1268,810,34
1657079149452,1629,1912,50
1657079149492,1325,2047,951
1657079149532,826,1478,1852
1657079149572,206,1367,1203
1657079149612,-11,1260,762
1657079149652,-40,692,588
1657079149692,-178,491,398
1657079149732,-278,458,288
1657079149772,-1021,563,-139
1657079149812,-794,921,-484
1657079149852,-72,1497,292
1657079149892,785,1729,1225
1657079149932,1316,1635,1120
1657079149972,1302,1667,598
1657079150012,1130,1074,524
1657079150052,971,750,257
1657079150092,933,627,-139
1657079150132,704,380,-375
1657079150172,680,229,-300
1657079150212,661,367,-160
1657079150252,577,700,110
1657079150292,856,1453,212
1657079150332,1275,1907,234
1657079150372,1076,1544,709
1657079150412,727,1305,826
1657079150452,442,960,652
1657079150492,178,639,540
1657079150532,-22,532,356
1657079150572,-17,582,196
1657079150612,-56,562,33
1657079150652,-111,717,18
1657079150692,-42,1055,266
1657079150732,67,1271,578
1657079150772,244,1476,772
1657079150812,596,1408,867
1657079150852,816,1127,792
1657079150892,861,894,485
1657079150932,878,695,138
1657079150972,876,509,-116
1657079151012,892,259,-164
1657079151052,831,236,-224
1657079151092,712,380,-80
1657079151132,887,1102,188
1657079151172,1271,1937,156
1657079151212,1319,1911,643
1657079151252,936,1414,1258
1657079151292,544,1175,994
1657079151332,256,1018,623
1657079151372,11,682,454
1657079151412,-68,495,322
1657079151452,-124,448,194
1657079151492,-145,529,79
1657079151532,-125,926,109
1657079151572,-103,1224,263
1657079151612,268,1522,512
1657079151652,565,1507,667
1657079151692,818,1264,692
1657079151732,856,917,540
1657079151772,928,646,303
1657079151812,953,425,59
1657079151852,803,210,-113
1657079151892,757,158,-189
1657079151932,736,313,-118
1657079151972,962,1076,154
1657079152012,1189,1532,93
1657079152052,1268,1642,517
1657079152092,1014,1426,842
1657079152132,692,1251,772
1657079152172,306,938,531
1657079152212,90,647,441
1657079152252,-5,568,330
1657079152292,-27,602,147
1657079152332,-35,647,-1
1657079152372,-98,863,59
1657079152412,-44,1157,167
1657079152452,369,1439,409
1657079152492,559,1300,577
1657079152532,913,1260,584
1657079152572,950,907,427
1657079152612,958,650,252
1657079152652,946,452,-1
1657079152692,868,196,-132
1657079152732,924,180,-212
1657079152772,842,280,-146
1657079152812,910,527,188
1657079152852,1310,1062,403
1657079152892,1539,1650,422
1657079152932,1354,1509,620
1657079152972,792,1119,776
1657079153012,545,900,536
1657079153052,319,748,264
1657079153092,141,651,159
1657079153132,-26,565,89
1657079153172,28,691,6
1657079153212,-50,683,5
1657079153252,-42,935,59
1657079153292,182,1124,262
1657079153332,472,1399,520
1657079153372,900,1425,691
1657079153412,1051,1083,771
1657079153452,1113,734,630
1657079153492,1132,535,308
1657079153532,1047,285,59
1657079153572,963,145,-86
1657079153612,960,238,-152
1657079153652,902,387,-106
1657079153692,1028,697,68
1657079153732,1253,1138,159
1657079153772,1329,1316,498
1657079153812,1220,1377,686
1657079153852,815,1254,577
1657079153892,512,892,551
1657079153932,253,677,438
1657079153972,99,660,261
1657079154012,5,595,155
1657079154052,39,640,9
1657079154092,57,827,153
1657079154132,130,1172,238
1657079154172,411,1344,381
1657079154212,594,1299,468
1657079154252,817,1136,474
1657079154292,929,795,433
1657079154332,937,556,298
1657079154372,875,406,93
1657079154412,829,255,-52
1657079154452,886,232,-112
1657079154492,911,309,-109
1657079154532,1057,608,-31
1657079154572,1402,927,-37
1657079154612,1483,1048,229
1657079154652,1590,1259,487
1657079154692,1312,1414,436
1657079154732,914,1228,414
1657079154772,530,795,414
1657079154812,226,484,372
1657079154852,141,390,277
1657079154892,110,327,145
1657079154932,168,451,-5
1657079154972,139,545,-76
1657079155012,78,835,-97
1657079155052,136,1055,65
1657079155092,585,1451,315
1657079155132,816,1409,480
1657079155172,797,1070,597
1657079155212,927,995,496
1657079155252,800,727,374
1657079155292,861,691,261
1657079155332,845,439,257
1657079155372,889,506,157
1657079155412,882,725,30
1657079155452,1056,1026,-36
1657079155492,1277,1205,-28
1657079155532,1189,1140,375
1657079155572,1207,1249,653
1657079155612,1042,1262,706
1657079155652,739,1079,586
1657079155692,433,905,392
1657079155732,245,694,207
1657079155772,211,534,172
1657079155812,138,407,120
1657079155852,214,418,42
1657079155892,198,416,-10
1657079155932,98,818,-1
1657079155972,316,1115,174
1657079156012,933,1504,379
1657079156052,1264,1360,560
1657079156092,1275,1008,587
1657079156132,1224,674,386
1657079156172,1051,243,232
1657079156212,938,-26,151
1657079156252,934,-87,-13
1657079156292,836,-45,-190
1657079156332,890,260,-169
1657079156372,1327,659,185
1657079156412,2046,1432,299
1657079156452,1840,1434,638
1657079156492,1272,948,955
1657079156532,811,853,559
1657079156572,403,640,263
1657079156612,350,592,131
1657079156652,309,382,74
1657079156692,610,437,-19
1657079156732,757,520,-231
1657079156772,607,579,-494
1657079156812,1257,773,-713
1657079156852,1119,739,-1119
1657079156892,933,326,-1107
1657079156932,890,269,-577
1657079156972,476,-79,-651
1657079157012,301,-161,-502
1657079157052,318,-183,-350
1657079157092,593,-145,-417
1657079157132,361,-141,-397
1657079157172,499,-268,-454
1657079157212,814,-149,-672
1657079157252,796,-166,-1146
1657079157292,652,-220,-993
1657079157332,543,-241,-1010
1657079157372,524,-339,-832
1657079157412,403,-276,-837
1657079157452,422,-174,-795
1657079157492,532,-98,-722
1657079157532,464,-68,-685
1657079157572,394,-35,-834
1657079157612,413,-103,-713
1657079157652,605,-14,-893
1657079157692,595,-141,-794
1657079157732,682,-183,-926
1657079157772,641,-79,-1135
1657079157812,601,-208,-980
1657079157852,374,-386,-869
1657079157892,465,-400,-805
1657079157932,604,-407,-721
1657079157972,686,-569,-514
1657079158012,758,-566,-509
1657079158052,938,-694,-502
1657079158092,1364,-541,-686
1657079158132,1359,-93,-1233
1657079158172,909,-142,-914
1657079158212,514,-157,-520
1657079158252,207,-65,-380
1657079158292,336,26,-341
1657079158332,464,124,-523
1657079158372,621,116,-614
1657079158412,612,222,-946
1657079158452,599,20,-759
1657079158492,651,228,-997
1657079158532,483,-174,-740
1657079158572,477,-60,-741
1657079158612,536,166,-914
1657079158652,324,21,-615
1657079158692,510,300,-658
1657079158732,600,314,-555
1657079158772,1369,77,-452
1657079158812,1987,231,-230
1657079158852,2046,41,76
1657079158892,1822,221,-441
1657079158932,2046,603,-626
1657079158972,2046,593,-860
1657079159012,1566,815,-1026
1657079159052,670,560,-926
1657079159092,4,107,-463
1657079159132,-132,-142,-75
1657079159172,335,284,-242
1657079159212,710,427,-106
1657079159252,682,423,-143
1657079159292,298,330,-366
1657079159332,399,226,-329
1657079159372,798,301,-634
1657079159412,621,-78,-736
1657079159452,707,245,-1014
1657079159492,686,270,-932
1657079159532,788,357,-668
1657079159572,1366,194,-388
1657079159612,1254,-65,95
1657079159652,1841,-237,-285
1657079159692,1562,-506,-90
1657079159732,1796,-403,-35
1657079159772,2046,554,-65
1657079159812,2046,642,-133
1657079159852,1871,965,-203
1657079159892,1016,785,-391
1657079159932,386,432,-452
1657079159972,149,252,-325
1657079160012,321,217,-199
1657079160052,236,118,-73
1657079160092,96,126,26
1657079160132,253,437,-222
1657079160172,315,160,-321
1657079160212,1238,343,-809
1657079160252,1456,196,-976
1657079160292,1185,-15,-891
1657079160332,962,-82,-849
1657079160372,1013,-182,-797
1657079160412,997,-263,-637
1657079160452,845,-242,-523
1657079160492,799,-352,-474
1657079160532,879,-447,-454
1657079160572,1241,-413,-636
1657079160612,1300,-457,-758
1657079160652,1451,-196,-1075
1657079160692,962,-206,-1032
1657079160732,501,-219,-712
1657079160772,323,-83,-430
1657079160812,435,-6,-318
1657079160852,364,-100,-319
1657079160892,511,-33,-533
1657079160932,558,31,-766
1657079160972,690,-61,-662
1657079161012,750,14,-932
1657079161052,956,-159,-781
1657079161092,887,-190,-880
1657079161132,759,-72,-819
1657079161172,553,-214,-506
1657079161212,474,-158,-387
1657079161252,352,-238,-312
1657079161292,823,-348,-361
1657079161332,1380,-256,-817
1657079161372,1259,-531,-667
1657079161412,1214,-657,-756
1657079161452,1527,-477,-1120
1657079161492,1476,-685,-780
1657079161532,1449,-92,-1091
1657079161572,936,50,-935
1657079161612,512,-58,-555
1657079161652,354,25,-191
1657079161692,331,-87,40
1657079161732,272,-32,5
1657079161772,142,40,-91
1657079161812,231,43,-215
1657079161852,81,79,-343
1657079161892,518,-57,-659
1657079161932,665,431,-1329
1657079161972,284,661,-1130
1657079162012,1040,917,-964
1657079162052,1183,331,-505
1657079162092,1902,577,-405
1657079162132,1534,188,-282
1657079162172,1132,-249,76
1657079162212,1330,34,132
1657079162252,1023,234,-30
1657079162292,1527,1044,-3
1657079162332,1795,1511,84
1657079162372,1260,1268,126
1657079162412,835,842,260
1657079162452,617,692,202
1657079162492,436,559,6
1657079162532,296,434,-101
1657079162572,304,397,-101
1657079162612,301,413,-120
1657079162652,276,457,-30
1657079162692,140,873,5
1657079162732,109,1228,161
1657079162772,465,1666,419
1657079162812,702,1657,619
1657079162852,828,1219,724
1657079162892,1090,1194,508
1657079162932,1064,763,280
1657079162972,1070,516,45
1657079163012,1026,294,-98
1657079163052,849,300,-201
1657079163092,708,636,-108
1657079163132,613,1190,50
1657079163172,646,1547,305
1657079163212,686,1493,687
1657079163252,713,1307,841
1657079163292,483,1161,568
1657079163332,222,940,517
1657079163372,53,892,248
1657079163412,-36,857,87
1657079163452,-15,647,68
1657079163492,143,710,62
1657079163532,147,751,75
1657079163572,50,1082,163
1657079163612,37,1201,492
1657079163652,261,1446,635
1657079163692,424,1197,598
1657079163732,688,1010,497
1657079163772,747,824,329
1657079163812,748,645,171
1657079163852,888,520,81
1657079163892,911,455,-8
1657079163932,791,539,-107
1657079163972,747,829,-48
1657079164012,679,1202,35
1657079164052,762,1571,266
1657079164092,975,1389,846
1657079164132,1019,1254,1045
1657079164172,742,1028,916
1657079164212,652,940,587
1657079164252,436,737,346
1657079164292,360,579,209
1657079164332,239,496,180
1657079164372,216,607,153
1657079164412,92,903,251
1657079164452,-35,1191,190
1657079164492,338,1297,140
1657079164532,1185,1282,272
1657079164572,1434,832,373
1657079164612,1283,494,187
1657079164652,1031,156,-38
1657079164692,902,47,-138
1657079164732,841,-183,-216
1657079164772,603,-325,-207
1657079164812,722,-99,-31
1657079164852,1206,480,450
1657079164892,1822,1114,545
1657079164932,1891,1533,479
1657079164972,1414,1245,315
1657079165012,1220,1069,79
1657079165052,1152,817,-132
1657079165092,1214,395,16
1657079165132,968,298,61
1657079165172,378,343,-110
1657079165212,-141,422,-196
1657079165252,-288,537,-36
1657079165292,-398,536,180
1657079165332,-80,775,294
1657079165372,937,1295,440
1657079165412,1055,1030,237
1657079165452,2046,907,-354
1657079165492,2046,740,689
1657079165532,2022,-66,-212
1657079165572,1336,-383,-292
1657079165612,1496,-269,-445
1657079165652,1321,-251,-419
1657079165692,2046,300,-57
1657079165732,1865,712,-224
1657079165772,1675,1126,-413
1657079165812,909,941,-423
1657079165852,369,729,-223
1657079165892,357,460,-185
1657079165932,391,279,-53
1657079165972,361,136,20
1657079166012,280,75,60
1657079166052,320,125,-69
1657079166092,413,291,-256
1657079166132,1389,692,-990
1657079166172,1511,584,-1254
1657079166212,1575,413,-1073
1657079166252,1092,-20,-858
1657079166292,800,-179,-665
1657079166332,752,-122,-537
1657079166372,587,-250,-399
1657079166412,521,-133,-388
1657079166452,606,-86,-396
1657079166492,891,-352,-522
1657079166532,1796,-48,-802
1657079166572,2046,159,-1015
1657079166612,1233,-56,-541
1657079166652,674,-1,-127
1657079166692,224,-167,10
1657079166732,137,-119,20
1657079166772,88,-191,-38
1657079166812,366,106,-267
1657079166852,471,39,-475
1657079166892,894,143,-559
1657079166932,1992,423,-762
1657079166972,2046,275,-662
1657079167012,1304,-78,-449
1657079167052,921,-65,-457
1657079167092,639,-212,-462
1657079167132,499,-228,-355
1657079167172,604,-192,-163
1657079167212,805,-253,-77
1657079167252,814,-318,-191
1657079167292,1310,-411,-459
1657079167332,1934,-106,-897
1657079167372,2007,125,-1033
1657079167412,1114,63,-789
1657079167452,716,47,-353
1657079167492,316,-130,30
1657079167532,97,-271,152
1657079167572,0,-184,96
1657079167612,304,-84,-35
1657079167652,484,201,-28
1657079167692,440,53,-225
1657079167732,859,293,-455
1657079167772,2046,541,-760
1657079167812,2046,302,-913
1657079167852,1421,-142,-635
1657079167892,934,-218,-647
1657079167932,796,-85,-792
1657079167972,770,-214,-419
1657079168012,802,-251,-318
1657079168052,736,-97,-283
1657079168092,701,-283,-455
1657079168132,1033,-176,-632
1657079168172,592,-375,-1018
1657079168212,565,-101,-1298
1657079168252,465,244,-1075
1657079168292,337,-171,-327
1657079168332,268,-98,-335
1657079168372,254,-182,-742
1657079168412,407,-104,-961
1657079168452,293,-230,-976
1657079168492,205,-201,-679
1657079168532,-149,-145,-883
1657079168572,430,-116,-1528
1657079168612,494,41,-1436
1657079168652,543,-159,-1296
1657079168692,252,-461,-1031
1657079168732,167,-702,-530
1657079168772,207,-511,-695
1657079168812,386,-340,-735
1657079168852,295,-418,-574
1657079168892,160,-413,-564
1657079168932,285,-302,-653
1657079168972,293,-475,-657
1657079169012,418,-432,-1001
1657079169052,954,19,-2048
1657079169092,188,-131,-1435
1657079169132,389,-57,-1139
1657079169172,538,-112,-1115
1657079169212,365,-282,-612
1657079169252,307,-347,-370
1657079169292,219,-350,-487
1657079169332,162,-304,-729
1657079169372,117,-309,-687
1657079169412,321,-318,-968
1657079169452,403,-361,-977
1657079169492,375,-535,-960
1657079169532,484,-282,-1555
1657079169572,462,-309,-1231
1657079169612,219,-445,-797
1657079169652,93,-439,-640
1657079169692,214,-479,-486
1657079169732,383,-442,-568
1657079169772,546,-498,-802
1657079169812,542,-548,-938
1657079169852,420,-606,-970
1657079169892,287,-580,-748
1657079169932,145,-519,-782
1657079169972,193,-285,-979
1657079170012,241,-144,-679
1657079170052,346,77,-1500
1657079170092,312,16,-1280
1657079170132,544,108,-1432
1657079170172,443,31,-950
1657079170212,303,-69,-511
1657079170252,274,-119,-411
1657079170292,62,-326,-350
1657079170332,137,-203,-855
1657079170372,48,-441,-786
1657079170412,202,-33,-1198
1657079170452,-76,-85,-868
1657079170492,-6,-70,-453
1657079170532,270,467,-884
1657079170572,573,194,-670
1657079170612,1240,871,-875
1657079170652,1224,421,-234
1657079170692,1776,621,364
1657079170732,1323,847,-276
1657079170772,1299,984,-424
1657079170812,1426,1162,-245
1657079170852,1023,1051,-275
1657079170892,821,933,-615
1657079170932,725,591,-412
1657079170972,761,621,-222
1657079171012,488,524,-263
1657079171052,269,479,-312
1657079171092,-19,217,-296
1657079171132,99,446,-213
1657079171172,-72,512,-140
1657079171212,-99,801,30
1657079171252,887,1807,-71
1657079171292,1967,1906,-140
1657079171332,1390,1100,394
1657079171372,1397,572,835
1657079171412,1406,315,562
1657079171452,978,-40,193
1657079171492,1032,-20,-2
1657079171532,802,-128,-199
1657079171572,747,141,-241
1657079171612,1159,326,167
1657079171652,2046,941,516
1657079171692,2046,1219,675
1657079171732,1874,1195,1041
1657079171772,1160,1043,676
1657079171812,476,681,564
1657079171852,-23,433,366
1657079171892,-272,333,89
1657079171932,-282,533,-203
1657079171972,-433,478,-220
1657079172012,-219,721,73
1657079172052,968,1144,339
1657079172092,1730,1442,327
1657079172132,1742,1204,482
1657079172172,1374,814,520
1657079172212,1229,403,463
1657079172252,1129,12,356
1657079172292,1007,-209,430
1657079172332,803,-404,267
1657079172372,729,-100,125
1657079172412,984,327,370
1657079172452,1959,833,677
1657079172492,2023,925,994
1657079172532,1564,907,946
1657079172572,1136,907,655
1657079172612,698,685,447
1657079172652,437,533,307
1657079172692,216,414,170
1657079172732,101,386,77
1657079172772,105,446,-75
1657079172812,159,510,-63
1657079172852,202,600,38
1657079172892,1008,1019,200
1657079172932,1531,1152,240
1657079172972,1533,992,276
1657079173012,1258,589,435
1657079173052,951,288,342
1657079173092,680,149,266
1657079173132,673,123,242
1657079173172,724,61,201
1657079173212,685,45,104
1657079173252,766,264,9
1657079173292,832,514,125
1657079173332,1341,1140,317
1657079173372,1487,1329,584
1657079173412,1413,1226,831
1657079173452,919,1016,750
1657079173492,554,709,543
1657079173532,479,526,410
1657079173572,383,446,255
1657079173612,332,419,107
1657079173652,311,471,-7
1657079173692,252,518,7
1657079173732,102,913,123
1657079173772,327,1203,397
1657079173812,838,1353,575
1657079173852,1056,1228,596
1657079173892,989,840,438
1657079173932,848,567,187
1657079173972,762,402,72
1657079174012,765,305,44
1657079174052,746,262,18
1657079174092,660,292,-27
1657079174132,670,578,72
1657079174172,797,974,128
1657079174212,1031,1187,324
1657079174252,1098,1234,501
1657079174292,984,1038,522
1657079174332,806,931,414
1657079174372,556,710,348
1657079174412,430,645,282
1657079174452,342,689,212
1657079174492,325,784,162
1657079174532,259,732,126
1657079174572,190,797,211
1657079174612,85,907,250
1657079174652,146,1026,367
1657079174692,420,1370,414
1657079174732,643,1279,514
1657079174772,776,963,650
1657079174812,902,749,543
1657079174852,935,505,233
1657079174892,918,351,-104
1657079174932,906,153,-204
1657079174972,911,305,-193
1657079175012,886,548,107
1657079175052,1229,958,514
1657079175092,1598,1618,473
1657079175132,1509,1340,815
1657079175172,1056,1035,1063
1657079175212,651,1065,587
1657079175252,438,757,448
1657079175292,330,574,447
1657079175332,194,506,313
1657079175372,222,557,132
1657079175412,177,759,49
1657079175452,-96,907,50
1657079175492,-37,1149,101
1657079175532,579,1120,152
1657079175572,1188,1369,377
1657079175612,1243,1012,670
1657079175652,1003,600,685
1657079175692,907,569,637
1657079175732,1072,392,476
1657079175772,1044,11,308
1657079175812,967,144,-18
1657079175852,788,150,-162
1657079175892,863,452,23
1657079175932,1449,1186,190
1657079175972,1618,1489,257
1657079176012,1362,1292,625
1657079176052,928,1123,758
1657079176092,570,860,654
1657079176132,412,722,612
1657079176172,277,588,581
1657079176212,153,583,540
1657079176252,74,563,322
1657079176292,-60,628,16
1657079176332,-70,824,-32
1657079176372,81,1077,220
1657079176412,390,1322,466
1657079176452,875,1523,681
1657079176492,1032,1344,824
1657079176532,944,764,922
1657079176572,1074,604,716
1657079176612,987,301,348
1657079176652,875,139,57
1657079176692,811,138,-150
1657079176732,774,174,-131
1657079176772,819,388,225
1657079176812,1258,921,417
1657079176852,1458,1342,413
1657079176892,1257,1146,773
1657079176932,1023,1010,891
1657079176972,580,733,711
1657079177012,426,609,632
1657079177052,356,628,445
1657079177092,210,574,280
1657079177132,204,589,139
1657079177172,123,668,94
1657079177212,110,994,146
1657079177252,417,1166,202
1657079177292,520,1171,331
1657079177332,783,1239,388
1657079177372,982,1114,398
1657079177412,942,756,446
1657079177452,938,561,326
1657079177492,920,446,131
1657079177532,849,156,30
1657079177572,851,148,-79
1657079177612,783,210,-98
1657079177652,684,492,40
1657079177692,1218,930,402
1657079177732,1470,1316,493
1657079177772,1264,1053,602
1657079177812,1016,994,513
1657079177852,752,766,422
1657079177892,607,638,392
1657079177932,458,554,313
1657079177972,305,530,197
1657079178012,228,561,88
1657079178052,171,597,78
1657079178092,143,903,155
1657079178132,422,1125,181
1657079178172,579,1133,320
1657079178212,924,1263,521
1657079178252,1165,1120,586
1657079178292,1062,752,555
1657079178332,952,440,369
1657079178372,891,303,88
1657079178412,797,75,-39
1657079178452,744,7,-120
1657079178492,727,131,-125
1657079178532,804,510,124
1657079178572,1152,1001,284
1657079178612,1399,1337,226
1657079178652,1290,1145,508
1657079178692,1058,1087,503
1657079178732,667,815,338
1657079178772,436,616,364
1657079178812,248,602,269
1657079178852,191,613,186
1657079178892,123,571,107
1657079178932,83,679,105
1657079178972,128,947,199
1657079179012,380,1195,379
1657079179052,552,1232,671
1657079179092,936,1262,623
1657079179132,970,1007,440
1657079179172,848,817,225
1657079179212,830,598,90
1657079179252,838,400,-37
1657079179292,724,210,-83
1657079179332,640,259,-78
1657079179372,689,598,31
1657079179412,662,1059,197
1657079179452,838,1530,109
1657079179492,989,1422,397
1657079179532,901,1223,648
1657079179572,626,1028,432
1657079179612,508,741,385
1657079179652,352,608,369
1657079179692,231,678,186
1657079179732,211,672,124
1657079179772,174,623,199
1657079179812,156,740,341
1657079179852,176,1068,496
1657079179892,195,1056,649
1657079179932,470,1319,585
1657079179972,536,1098,470
1657079180012,733,1013,343
1657079180052,806,921,108
1657079180092,796,779,25
1657079180132,795,518,26
1657079180172,739,451,-112
1657079180212,650,406,-195
1657079180252,582,572,-120
1657079180292,828,1019,-26
1657079180332,1111,1293,118
1657079180372,1245,1417,460
1657079180412,986,1268,724
1657079180452,767,1118,766
1657079180492,599,1036,621
1657079180532,485,728,684
1657079180572,388,698,531
1657079180612,233,567,267
1657079180652,164,515,123
1657079180692,223,537,-2
1657079180732,259,677,-67
1657079180772,427,842,-56
1657079180812,635,1075,53
1657079180852,845,1274,150
1657079180892,1216,1268,228
1657079180932,1149,863,203
1657079180972,964,538,71
1657079181012,827,285,-33
1657079181052,895,71,-17
1657079181092,906,-20,-27
1657079181132,818,19,-109
1657079181172,864,176,-28
1657079181212,1275,529,217
1657079181252,1321,856,8
1657079181292,1456,957,33
1657079181332,1475,967,204
1657079181372,1197,764,395
1657079181412,817,579,299
1657079181452,536,540,98
1657079181492,430,392,-114
1657079181532,432,312,-317
1657079181572,555,284,-297
1657079181612,455,196,-197
1657079181652,360,491,-143
1657079181692,566,808,-267
1657079181732,1491,1289,-410
1657079181772,1636,1124,-311
1657079181812,1318,756,-177
1657079181852,1118,472,-250
1657079181892,941,320,-415
1657079181932,639,103,-433
1657079181972,385,-142,-292
1657079182012,350,-301,-170
1657079182052,571,-205,31
1657079182092,802,-224,148
1657079182132,1532,127,-3
1657079182172,2041,372,-214
1657079182212,2045,492,-147
1657079182252,1665,555,-270
1657079182292,1297,563,-421
1657079182332,797,369,-247
1657079182372,481,328,-69
1657079182412,269,379,-49
1657079182452,159,344,-142
1657079182492,179,420,-310
1657079182532,371,354,-377
1657079182572,1010,570,-474
1657079182612,1386,612,-515
1657079182652,1415,604,-520
1657079182692,1256,479,-332
1657079182732,1009,353,-174
1657079182772,1005,358,-17
1657079182812,1005,199,144
1657079182852,829,172,132
1657079182892,859,188,47
1657079182932,971,242,70
1657079182972,1111,344,141
1657079183012,953,358,15
1657079183052,891,382,-262
1657079183092,1318,444,-333
1657079183132,1439,596,-263
1657079183172,1221,543,-194
1657079183212,915,356,109
1657079183252,727,236,156
1657079183292,586,153,90
1657079183332,518,277,-47
1657079183372,542,328,-137
1657079183412,447,386,-121
1657079183452,265,515,-137
1657079183492,596,1026,-230
1657079183532,832,1045,-280
1657079183572,1500,1402,-60
1657079183612,1368,993,16
1657079183652,1196,609,136
1657079183692,1013,319,-18
1657079183732,905,198,-48
1657079183772,941,19,-39
1657079183812,912,-95,-43
1657079183852,904,58,-129
1657079183892,844,288,-160
1657079183932,1374,758,63
1657079183972,1571,1021,56
1657079184012,1637,1069,290
1657079184052,1306,1015,345
1657079184092,784,812,108
1657079184132,557,608,72
1657079184172,490,469,57
1657079184212,464,370,12
1657079184252,460,371,-89
1657079184292,436,336,-129
1657079184332,489,398,-54
1657079184372,567,721,-42
1657079184412,834,970,-99
1657079184452,1014,1190,-87
1657079184492,1144,1072,39
1657079184532,1157,758,111
1657079184572,1112,486,138
1657079184612,1013,340,27
1657079184652,921,159,-27
1657079184692,905,40,7
1657079184732,871,15,-57
1657079184772,883,174,-135
1657079184812,805,307,-9
1657079184852,1228,588,141
1657079184892,1415,748,152
1657079184932,1566,738,368
1657079184972,1411,803,279
1657079185012,1103,615,74
1657079185052,1134,466,163
1657079185092,760,326,117
1657079185132,561,235,-2
1657079185172,441,196,-96
1657079185212,382,266,-144
1657079185252,381,387,-271
1657079185292,274,414,-302
1657079185332,830,772,-216
1657079185372,1130,936,-102
1657079185412,1486,1027,-148
1657079185452,1495,843,-30
1657079185492,1160,445,84
1657079185532,1062,253,73
1657079185572,968,141,-71
1657079185612,799,-7,-90
1657079185652,711,-149,-17
1657079185692,616,-162,-38
1657079185732,651,-63,-40
1657079185772,1010,140,122
1657079185812,1798,415,81
1657079185852,1863,436,79
1657079185892,1619,376,176
1657079185932,1226,303,108
1657079185972,841,225,47
1657079186012,669,254,25
1657079186052,587,271,7
1657079186092,522,227,-30
1657079186132,583,300,-69
1657079186172,527,326,-129
1657079186212,695,420,-119
1657079186252,1104,618,-57
1657079186292,1508,680,15
1657079186332,1474,683,-22
1657079186372,1240,469,-53
1657079186412,1053,254,-172
1657079186452,986,230,-45
1657079186492,965,65,-223
1657079186532,821,7,-183
1657079186572,668,-18,-166
1657079186612,618,21,-166
1657079186652,775,66,-100
1657079186692,947,45,-119
1657079186732,1720,169,-269
1657079186772,2046,244,-338
1657079186812,1801,237,-332
1657079186852,1435,126,-238
1657079186892,1101,116,-315
1657079186932,748,-1,-396
1657079186972,674,49,-291
1657079187012,488,-62,-277
1657079187052,390,-114,-151
1657079187092,348,-40,-19
1657079187132,298,-128,116
1657079187172,119,-183,78
1657079187212,690,-11,5
1657079187252,1210,54,1
1657079187292,1431,325,-502
1657079187332,1216,227,-515
1657079187372,1819,328,48
1657079187412,1062,-52,-46
1657079187452,563,-119,23
1657079187492,479,2,10
1657079187532,743,51,158
1657079187572,726,-44,42
1657079187612,1202,-253,162
1657079187652,2046,119,387
1657079187692,2046,97,-4
1657079187732,1638,156,186
1657079187772,1453,160,340
1657079187812,1169,199,244
1657079187852,837,184,91
1657079187892,707,153,145
1657079187932,521,245,82
1657079187972,348,190,-25
1657079188012,339,238,10
1657079188052,496,312,-54
1657079188092,432,355,-20
1657079188132,340,509,137
1657079188172,995,874,314
1657079188212,988,919,362
1657079188252,822,1006,612
1657079188292,1147,1048,785
1657079188332,1068,795,860
1657079188372,1042,656,871
1657079188412,925,435,686
1657079188452,860,334,557
1657079188492,910,396,459
1657079188532,900,364,335
1657079188572,889,525,250
1657079188612,926,809,178
1657079188652,964,988,203
1657079188692,1258,877,468
1657079188732,1228,784,830
1657079188772,1124,976,853
1657079188812,968,837,800
1657079188852,751,537,901
1657079188892,471,452,713
1657079188932,327,399,536
1657079188972,485,420,423
1657079189012,493,370,370
1657079189052,468,423,309
1657079189092,534,454,204
1657079189132,526,412,213
1657079189172,851,668,302
1657079189212,1321,938,440
1657079189252,1579,1043,554
1657079189292,1574,597,445
1657079189332,1136,211,87
1657079189372,955,-23,-161
1657079189412,829,-321,-165
1657079189452,727,-442,-264
1657079189492,578,-216,-415
1657079189532,609,-117,-273
1657079189572,729,-136,249
1657079189612,1596,-57,349
1657079189652,2046,417,71
1657079189692,1735,433,-75
1657079189732,1170,372,-40
1657079189772,764,143,-23
1657079189812,513,12,-44
1657079189852,285,-14,-29
1657079189892,339,85,-27
1657079189932,437,175,-44
1657079189972,461,428,-43
1657079190012,713,727,-21
1657079190052,1375,910,69
1657079190092,1934,657,397
1657079190132,1731,319,288
1657079190172,1299,142,56
1657079190212,1064,74,-42
1657079190252,923,-38,-102
1657079190292,916,-247,-55
1657079190332,999,-384,-79
1657079190372,779,-248,-208
1657079190412,932,-69,-181
1657079190452,1628,-46,307
1657079190492,2046,153,455
1657079190532,1905,510,360
1657079190572,1235,443,127
1657079190612,867,356,156
1657079190652,562,223,84
1657079190692,564,45,74
1657079190732,471,-75,46
1657079190772,487,-62,90
1657079190812,500,139,76
1657079190852,609,183,-93
1657079190892,1065,422,1
1657079190932,1765,548,157
1657079190972,1378,611,85
1657079191012,1132,444,145
1657079191052,898,370,174
1657079191092,613,234,233
1657079191132,596,66,504
1657079191172,634,-150,348
1657079191212,1163,-240,194
1657079191252,1439,-393,210
1657079191292,1512,-380,166
1657079191332,1839,26,73
1657079191372,2046,230,469
1657079191412,2046,546,675
1657079191452,1691,768,511
1657079191492,1332,626,361
1657079191532,846,504,322
1657079191572,382,337,122
1657079191612,90,318,-33
1657079191652,92,419,-60
1657079191692,144,380,-123
1657079191732,224,420,-47
1657079191772,478,581,48
1657079191812,1187,1000,173
1657079191852,1713,879,397
1657079191892,1830,601,374
1657079191932,1299,218,255
1657079191972,1018,152,248
1657079192012,948,43,249
1657079192052,959,-91,192
1657079192092,1272,-130,220
1657079192132,1049,-322,78
1657079192172,964,20,7
1657079192212,1285,170,63
1657079192252,1872,339,427
1657079192292,2013,641,392
1657079192332,1667,675,330
1657079192372,1275,544,320
1657079192412,875,308,250
1657079192452,546,239,125
1657079192492,320,168,-5
1657079192532,409,321,11
1657079192572,276,318,-93
1657079192612,121,402,-71
1657079192652,281,598,-39
1657079192692,1126,856,201
1657079192732,1371,1047,53
1657079192772,1688,858,202
1657079192812,1367,293,290
1657079192852,1043,39,224
1657079192892,1211,164,121
1657079192932,1122,-117,22
1657079192972,1241,-86,49
1657079193012,1105,-262,100
1657079193052,939,-73,23
1657079193092,1063,131,40
1657079193132,1596,382,314
1657079193172,1698,442,393
1657079193212,1704,589,426
1657079193252,1401,628,341
1657079193292,1043,531,265
1657079193332,724,320,284
1657079193372,510,149,270
1657079193412,483,105,186
1657079193452,387,103,65
1657079193492,383,316,-8
1657079193532,310,546,-164
1657079193572,875,811,68
1657079193612,1332,1053,-14
1657079193652,1579,1102,102
1657079193692,1506,572,303
1657079193732,1391,194,256
1657079193772,1218,-25,-31
1657079193812,1138,-177,-120
1657079193852,981,-214,-226
1657079193892,642,-245,-290
1657079193932,490,-207,-290
1657079193972,796,-65,-45
1657079194012,1057,-617,355
1657079194052,2046,516,166
1657079194092,1998,137,230
1657079194132,1827,306,320
1657079194172,1176,361,92
1657079194212,686,132,177
1657079194252,616,167,106
1657079194292,442,157,-38
1657079194332,404,187,-14
1657079194372,296,144,-40
1657079194412,329,245,-13
1657079194452,647,303,-104
1657079194492,1909,581,116
1657079194532,1752,466,-241
1657079194572,1286,172,54
1657079194612,1175,-16,98
1657079194652,1069,-74,-8
1657079194692,977,-73,-77
1657079194732,853,-111,-132
1657079194772,710,-124,-118
1657079194812,608,-201,-80
1657079194852,686,-193,-39
1657079194892,939,-218,2
1657079194932,1776,-33,141
1657079194972,1922,62,-102
1657079195012,1963,18,79
1657079195052,1592,71,119
1657079195092,1202,1,15
1657079195132,1053,-44,-16
1657079195172,643,15,-214
1657079195212,501,-50,-315
1657079195252,570,-18,-377
1657079195292,492,189,-494
1657079195332,366,277,-503
1657079195372,613,513,-209
1657079195412,951,453,54
1657079195452,1039,167,84
1657079195492,1184,62,-185
1657079195532,1069,-121,-259
1657079195572,840,-145,-298
1657079195612,1117,-113,-375
1657079195652,1530,-103,-365
1657079195692,1087,-286,-441
1657079195732,1004,-168,-292
1657079195772,985,-216,-241
1657079195812,1201,-153,-383
1657079195852,1402,-47,-594
1657079195892,1396,-21,-630
1657079195932,1155,223,-585
1657079195972,979,199,-525
1657079196012,955,-190,20
1657079196052,988,-256,328
1657079196092,777,-127,206
1657079196132,652,-53,21
1657079196172,478,36,-112
1657079196212,407,207,-168
1657079196252,284,308,-290
1657079196292,678,470,-528
1657079196332,1382,759,-524
1657079196372,1666,629,-482
1657079196412,1454,336,-327
1657079196452,1028,-105,115
1657079196492,1158,79,177
1657079196532,1041,-63,-90
1657079196572,839,-207,-16
1657079196612,1203,-123,117
1657079196652,1051,-232,177
1657079196692,1126,-6,151
1657079196732,1543,187,320
1657079196772,1967,561,285
1657079196812,1599,639,160
1657079196852,1205,517,83
1657079196892,999,325,115
1657079196932,791,260,102
1657079196972,747,277,99
1657079197012,517,254,13
1657079197052,345,206,-44
1657079197092,272,301,-93
1657079197132,127,431,-164
1657079197172,857,800,64
1657079197212,1452,1073,135
1657079197252,1554,1061,151
1657079197292,1294,694,240
1657079197332,1021,360,318
1657079197372,987,256,310
1657079197412,999,201,234
1657079197452,804,-23,191
1657079197492,771,-39,174
1657079197532,791,43,91
1657079197572,888,352,75
1657079197612,1412,601,140
1657079197652,1685,765,206
1657079197692,1348,778,246
1657079197732,1114,597,297
1657079197772,992,473,237
1657079197812,862,429,266
1657079197852,656,254,287
1657079197892,528,290,230
1657079197932,410,361,112
1657079197972,375,471,6
1657079198012,393,638,-95
1657079198052,623,750,40
1657079198092,980,950,140
1657079198132,1070,1099,90
1657079198172,1107,980,206
1657079198212,958,640,335
1657079198252,1068,577,322
1657079198292,969,346,245
1657079198332,901,249,189
1657079198372,922,185,141
1657079198412,828,80,89
1657079198452,829,177,73
1657079198492,987,370,149
1657079198532,1263,613,236
1657079198572,1419,777,314
1657079198612,1321,777,531
1657079198652,1063,659,514
1657079198692,901,598,396
1657079198732,631,420,339
1657079198772,449,410,237
1657079198812,437,385,175
1657079198852,601,433,131
1657079198892,569,352,96
1657079198932,560,429,155
1657079198972,858,689,255
1657079199012,933,867,416
1657079199052,893,1112,346
1657079199092,1106,1050,364
1657079199132,1120,747,451
1657079199172,1005,453,372
1657079199212,858,275,195
1657079199252,803,82,126
1657079199292,812,-7,85
1657079199332,862,57,33
1657079199372,851,331,150
1657079199412,1001,557,379
1657079199452,1459,733,644
1657079199492,1369,671,657
1657079199532,1258,641,689
1657079199572,972,555,444
1657079199612,738,419,316
1657079199652,708,428,204
1657079199692,625,335,98
1657079199732,584,282,81
1657079199772,625,362,67
1657079199812,549,305,-47
1657079199852,562,394,-67
1657079199892,951,610,19
1657079199932,1351,693,273
1657079199972,1292,717,290
1657079200012,1200,593,236
1657079200052,1090,398,150
1657079200092,975,231,89
1657079200132,920,64,46
1657079200172,825,-134,-5
1657079200212,763,-139,-37
1657079200252,894,-73,57
1657079200292,839,207,-150
1657079200332,1041,314,-52
1657079200372,1540,473,-28
1657079200412,1608,505,-33
1657079200452,1217,335,119
1657079200492,957,309,113
1657079200532,863,223,93
1657079200572,723,163,1
1657079200612,671,156,-68
1657079200652,652,178,-156
1657079200692,723,190,-173
1657079200732,738,232,-159
1657079200772,764,411,-119
1657079200812,1091,617,6
1657079200852,1209,675,46
1657079200892,1273,640,181
1657079200932,1275,449,190
1657079200972,1158,290,107
1657079201012,1005,174,-3
1657079201052,876,58,-75
1657079201092,775,-48,-95
1657079201132,792,-92,-59
1657079201172,891,-10,-51
1657079201212,976,163,-129
1657079201252,1148,239,-46
1657079201292,1462,128,169
1657079201332,1764,319,187
1657079201372,1653,410,-10
1657079201412,1529,270,146
1657079201452,1233,226,84
1657079201492,715,183,-7
1657079201532,395,133,-46
1657079201572,218,137,-135
1657079201612,255,219,-203
1657079201652,231,268,-247
1657079201692,346,317,-86
1657079201732,669,449,7
1657079201772,1264,765,134
1657079201812,1616,864,283
1657079201852,1605,526,453
1657079201892,1379,260,363
1657079201932,1117,144,276
1657079201972,922,6,209
1657079202012,959,-214,234
1657079202052,981,-385,51
1657079202092,964,-421,-30
1657079202132,745,-303,-173
1657079202172,815,-201,-130
1657079202212,1755,-469,419
1657079202252,2046,413,762
1657079202292,2046,501,658
1657079202332,1718,305,778
1657079202372,860,325,420
1657079202412,300,262,235
1657079202452,49,209,110
1657079202492,1,220,14
1657079202532,10,263,-54
1657079202572,-31,366,-85
1657079202612,-83,644,18
1657079202652,801,836,617
1657079202692,2046,901,898
1657079202732,2046,216,835
1657079202772,1606,-212,442
1657079202812,1125,-121,-60
1657079202852,978,-323,-100
1657079202892,833,-467,-149
1657079202932,590,-372,-283
1657079202972,560,-308,-285
1657079203012,581,-446,-146
1657079203052,2046,-244,424
1657079203092,2046,62,498
1657079203132,2046,213,697
1657079203172,1343,356,481
1657079203212,596,330,376
1657079203252,249,318,211
1657079203292,5,342,58
1657079203332,-85,323,-11
1657079203372,-21,302,-20
1657079203412,-56,282,-46
1657079203452,448,533,187
1657079203492,1382,681,447
1657079203532,2046,677,655
1657079203572,2046,200,571
1657079203612,1617,-47,221
1657079203652,1237,-104,34
1657079203692,995,-148,-22
1657079203732,724,-361,-97
1657079203772,543,-258,-261
1657079203812,645,-178,-287
1657079203852,602,-373,-188
1657079203892,1744,-385,228
1657079203932,2046,75,297
1657079203972,2046,339,397
1657079204012,1625,464,684
1657079204052,965,428,562
1657079204092,327,326,313
1657079204132,38,255,165
1657079204172,-100,193,1
1657079204212,-57,249,-112
1657079204252,-11,263,-111
1657079204292,334,435,37
1657079204332,1384,776,246
1657079204372,2046,809,235
1657079204412,2046,592,291
1657079204452,1450,93,201
1657079204492,1106,-23,93
1657079204532,1004,-129,-26
1657079204572,893,-269,-83
1657079204612,767,-392,-86
1657079204652,599,-237,-199
1657079204692,572,-98,-217
1657079204732,1205,-184,213
1657079204772,2046,183,366
1657079204812,2046,571,135
1657079204852,1673,435,205
1657079204892,958,313,197
1657079204932,441,159,97
1657079204972,213,78,-51
1657079205012,132,8,-62
1657079205052,261,80,-67
1657079205092,223,62,-95
1657079205132,274,269,6
1657079205172,461,480,143
1657079205212,1181,689,457
1657079205252,1847,1010,444
1657079205292,2046,760,405
1657079205332,1815,213,374
1657079205372,1128,46,50
1657079205412,1066,-94,-45
1657079205452,1103,-312,40
1657079205492,891,-318,-94
1657079205532,684,-358,-180
1657079205572,853,-38,-119
1657079205612,1183,-72,91
1657079205652,2046,155,324
1657079205692,2046,485,307
1657079205732,1646,646,104
1657079205772,893,348,162
1657079205812,242,165,157
1657079205852,-104,77,30
1657079205892,-174,126,-77
1657079205932,-70,249,-110
1657079205972,157,400,-145
1657079206012,412,474,-58
1657079206052,1545,653,209
1657079206092,2046,708,134
1657079206132,2046,360,-40
1657079206172,1194,47,8
1657079206212,926,6,-48
1657079206252,776,1,-81
1657079206292,681,110,-126
1657079206332,608,79,-88
1657079206372,768,172,47
1657079206412,588,-145,30
1657079206452,931,-232,-131
1657079206492,2046,-127,-152
1657079206532,2046,143,-55
1657079206572,1842,152,172
1657079206612,1334,121,294
1657079206652,610,-28,278
1657079206692,245,-42,191
1657079206732,87,58,112
1657079206772,-56,264,47
1657079206812,-30,293,-55
1657079206852,-90,451,-43
1657079206892,271,888,119
1657079206932,1965,1366,514
1657079206972,2046,1343,333
1657079207012,1841,676,567
1657079207052,1279,59,569
1657079207092,858,-27,433
1657079207132,1069,-70,471
1657079207172,971,-685,570
1657079207212,957,-509,352
1657079207252,945,-332,206
1657079207292,1033,-190,496
1657079207332,1961,-20,1214
1657079207372,2046,341,1507
1657079207412,1712,519,1305
1657079207452,1100,700,928
1657079207492,484,510,583
1657079207532,79,461,246
1657079207572,-62,408,-49
1657079207612,-1,441,-187
1657079207652,196,467,-90
1657079207692,229,422,83
1657079207732,674,644,232
1657079207772,1389,816,546
1657079207812,2046,639,746
1657079207852,1838,158,687
1657079207892,1287,-2,256
1657079207932,1102,33,50
1657079207972,1059,-125,5
1657079208012,955,-343,0
1657079208052,841,-337,-1
1657079208092,805,-163,-106
1657079208132,901,-55,-9
1657079208172,1732,118,424
1657079208212,2046,262,679
1657079208252,1920,353,738
1657079208292,1319,391,590
1657079208332,815,283,486
1657079208372,399,194,241
1657079208412,291,220,36
1657079208452,327,200,0
1657079208492,510,199,-5
1657079208532,532,258,-10
1657079208572,680,447,135
1657079208612,1060,499,250
1657079208652,1339,545,379
1657079208692,1704,363,385
1657079208732,1450,35,270
1657079208772,1162,-107,156
1657079208812,908,-172,72
1657079208852,738,-240,19
1657079208892,913,-285,47
1657079208932,908,-306,75
1657079208972,870,-165,39
1657079209012,1152,2,125
1657079209052,1683,32,422
1657079209092,2044,138,445
1657079209132,1668,361,333
1657079209172,1111,225,288
1657079209212,744,84,246
1657079209252,587,58,143
1657079209292,504,53,76
1657079209332,423,103,12
1657079209372,384,164,-43
1657079209412,505,186,-22
1657079209452,775,277,12
1657079209492,1503,423,182
1657079209532,1637,428,413
1657079209572,1739,291,401
1657079209612,1305,177,138
1657079209652,1022,33,44
1657079209692,973,-79,-4
1657079209732,828,-180,-61
1657079209772,652,-301,-59
1657079209812,609,-273,-6
1657079209852,489,-178,-24
1657079209892,716,-57,156
1657079209932,1238,73,221
1657079209972,2041,54,349
1657079210012,1984,7,461
1657079210052,1607,33,307
1657079210092,1264,6,215
1657079210132,986,-106,272
1657079210172,745,-26,204
1657079210212,557,76,104
1657079210252,358,116,32
1657079210292,163,187,-66
1657079210332,77,389,-93
1657079210372,662,541,199
1657079210412,1777,549,518
1657079210452,1871,390,519
1657079210492,1513,255,355
1657079210532,1183,152,118
1657079210572,1042,29,147
1657079210612,815,-124,146
1657079210652,646,-244,104
1657079210692,704,-271,104
1657079210732,654,-233,29
1657079210772,908,-88,37
1657079210812,1704,4,319
1657079210852,1983,110,371
1657079210892,1726,125,457
1657079210932,1520,37,366
1657079210972,1137,21,369
1657079211012,789,38,251
1657079211052,573,121,224
1657079211092,405,233,115
1657079211132,305,372,36
1657079211172,295,510,-106
1657079211212,443,566,-69
1657079211252,1135,533,228
1657079211292,1863,506,373
1657079211332,1647,400,321
1657079211372,1299,214,256
1657079211412,1016,154,97
1657079211452,906,89,26
1657079211492,808,-39,39
1657079211532,708,-211,44
1657079211572,943,-241,106
1657079211612,1012,-205,56
1657079211652,1256,-47,83
1657079211692,1714,3,183
1657079211732,1929,24,358
1657079211772,1985,181,469
1657079211812,1320,209,343
1657079211852,697,133,330
1657079211892,347,105,247
1657079211932,222,188,103
1657079211972,223,267,-23
1657079212012,342,253,21
1657079212052,522,302,27
1657079212092,739,552,15
1657079212132,1396,735,235
1657079212172,1994,669,356
1657079212212,1803,333,440
1657079212252,1319,85,257
1657079212292,1107,42,21
1657079212332,957,-68,-33
1657079212372,833,-269,-17
1657079212412,727,-349,3
1657079212452,672,-242,-28
1657079212492,799,-163,80
1657079212532,1498,-6,344
1657079212572,2046,210,456
1657079212612,1789,266,439
1657079212652,1335,307,374
1657079212692,922,216,261
1657079212732,627,110,180
1657079212772,480,161,65
1657079212812,560,275,9
1657079212852,558,284,-68
1657079212892,482,290,-65
1657079212932,474,336,37
1657079212972,834,315,253
1657079213012,1421,408,402
1657079213052,1725,409,335
1657079213092,1551,226,274
1657079213132,1301,106,118
1657079213172,1029,10,51
1657079213212,881,-126,58
1657079213252,898,-223,37
1657079213292,825,-285,-40
1657079213332,833,-216,-11
1657079213372,708,-161,72
1657079213412,1247,-120,305
1657079213452,1836,108,286
1657079213492,2046,203,334
1657079213532,1726,207,236
1657079213572,1210,250,228
1657079213612,690,173,121
1657079213652,371,153,69
1657079213692,293,178,-14
1657079213732,286,233,-67
1657079213772,329,269,-67
1657079213812,444,323,-81
1657079213852,773,512,63
1657079213892,1233,513,366
1657079213932,1796,643,414
1657079213972,1625,402,363
1657079214012,1371,170,365
1657079214052,1132,8,287
1657079214092,958,66,149
1657079214132,1130,-4,91
1657079214172,1012,-288,148
1657079214212,790,-251,75
1657079214252,852,-176,83
1657079214292,958,-83,176
1657079214332,1678,150,292
1657079214372,1899,126,420
1657079214412,1690,171,481
1657079214452,1333,267,278
1657079214492,897,143,227
1657079214532,649,130,198
1657079214572,438,173,81
1657079214612,377,222,16
1657079214652,373,204,-14
1657079214692,261,224,-16
1657079214732,603,453,187
1657079214772,1379,486,422
1657079214812,1566,557,425
1657079214852,1629,409,363
1657079214892,1384,122,227
1657079214932,1090,-101,139
1657079214972,967,-143,91
1657079215012,872,-215,41
1657079215052,948,-254,33
1657079215092,869,-292,1
1657079215132,843,-156,12
1657079215172,1276,-51,227
1657079215212,1847,27,454
1657079215252,1863,184,367
1657079215292,1634,209,403
1657079215332,1215,156,329
1657079215372,694,79,239
1657079215412,444,147,134
1657079215452,322,139,48
1657079215492,268,240,-66
1657079215532,355,322,-85
1657079215572,346,309,21
1657079215612,574,551,287
1657079215652,1249,711,570
1657079215692,1741,801,694
1657079215732,1855,556,687
1657079215772,1569,277,422
1657079215812,1324,66,272
1657079215852,1158,-153,219
1657079215892,1002,-330,70
1657079215932,829,-272,-91
1657079215972,709,-161,-174
1657079216012,719,-53,-135
1657079216052,996,43,193
1657079216092,1994,123,476
1657079216132,2046,414,478
1657079216172,1579,315,571
1657079216212,1193,308,411
1657079216252,520,176,222
1657079216292,279,162,54
1657079216332,275,213,-31
1657079216372,216,247,-122
1657079216412,327,286,-41
1657079216452,589,404,60
1657079216492,1034,557,203
1657079216532,1633,565,303
1657079216572,1682,388,282
1657079216612,1637,175,202
1657079216652,1347,84,39
1657079216692,1106,93,-60
1657079216732,932,137,-92
1657079216772,665,26,-129
1657079216812,529,-63,-59
1657079216852,583,-140,19
1657079216892,683,-130,-3
1657079216932,1078,13,12
1657079216972,1901,227,35
1657079217012,1727,284,115
1657079217052,1451,304,123
1657079217092,1086,318,159
1657079217132,780,215,146
1657079217172,676,193,187
1657079217212,634,275,118
1657079217252,555,337,19
1657079217292,513,353,52
1657079217332,432,307,158
1657079217372,382,588,381
1657079217412,444,732,593
1657079217452,829,959,827
1657079217492,1341,1052,940
1657079217532,1238,681,925
1657079217572,1238,606,793
1657079217612,1323,442,481
1657079217652,1266,232,155
1657079217692,1180,233,-97
1657079217732,1043,190,-250
1657079217772,823,317,-278
1657079217812,907,344,81
1657079217852,1413,778,617
1657079217892,1490,1124,761
1657079217932,1509,1212,776
1657079217972,1036,801,885
1657079218012,809,571,995
1657079218052,559,511,716
1657079218092,435,625,473
1657079218132,355,566,226
1657079218172,326,471,256
1657079218212,192,498,288
1657079218252,-10,920,394
1657079218292,341,1136,604
1657079218332,638,1012,756
1657079218372,1099,995,792
1657079218412,1221,754,665
1657079218452,1139,468,376
1657079218492,1140,424,248
1657079218532,1116,239,6
1657079218572,1013,-12,-131
1657079218612,933,-30,-176
1657079218652,830,125,-272
1657079218692,938,467,-143
1657079218732,1513,822,223
1657079218772,1964,924,772
1657079218812,1950,1010,1109
1657079218852,1258,845,1131
1657079218892,792,626,977
1657079218932,553,672,710
1657079218972,334,658,453
1657079219012,275,631,359
1657079219052,187,572,221
1657079219092,104,567,98
1657079219132,38,664,115
1657079219172,294,954,240
1657079219212,656,1065,317
1657079219252,1150,1242,541
1657079219292,1415,980,813
1657079219332,1355,600,821
1657079219372,1214,505,644
1657079219412,1124,292,428
1657079219452,1115,4,219
1657079219492,1005,-103,21
1657079219532,873,-43,-164
1657079219572,773,71,-181
1657079219612,1070,342,122
1657079219652,1670,682,697
1657079219692,1922,998,626
1657079219732,1592,934,663
1657079219772,1278,779,539
1657079219812,993,703,436
1657079219852,612,519,274
1657079219892,338,407,218
1657079219932,107,357,103
1657079219972,27,339,-20
1657079220012,120,426,-36
1657079220052,99,566,16
1657079220092,790,970,181
1657079220132,1178,1043,314
1657079220172,1456,1031,380
1657079220212,1445,711,471
1657079220252,1331,440,384
1657079220292,1342,288,291
1657079220332,1180,-6,195
1657079220372,999,-46,6
1657079220412,914,-96,-27
1657079220452,1042,153,45
1657079220492,1447,249,267
1657079220532,1860,363,361
1657079220572,1868,607,386
1657079220612,1776,513,425
1657079220652,1301,359,404
1657079220692,855,283,237
1657079220732,369,248,137
1657079220772,-4,229,14
1657079220812,-89,299,-72
1657079220852,84,319,-79
1657079220892,178,256,-73
1657079220932,688,548,76
1657079220972,1282,699,195
1657079221012,2046,646,330
1657079221052,2046,17,455
1657079221092,1430,-1,-52
1657079221132,1148,5,-202
1657079221172,881,-219,-284
1657079221212,758,-295,-301
1657079221252,667,-322,-218
1657079221292,631,-283,-224
1657079221332,659,-298,-147
1657079221372,1902,-190,114
1657079221412,2046,125,142
1657079221452,2042,240,189
1657079221492,1567,372,180
1657079221532,904,248,22
1657079221572,549,114,8
1657079221612,232,51,-36
1657079221652,139,101,-57
1657079221692,-24,128,-61
1657079221732,-15,219,-3
1657079221772,251,332,159
1657079221812,757,627,120
1657079221852,1392,972,159
1657079221892,2046,912,373
1657079221932,1789,310,513
1657079221972,1354,55,412
1657079222012,1237,59,237
1657079222052,1126,-135,124
1657079222092,1035,-249,99
1657079222132,1054,-304,44
1657079222172,899,-220,-61
1657079222212,1026,-59,-54
1657079222252,1556,-26,322
1657079222292,2046,386,521
1657079222332,2046,454,552
1657079222372,1969,666,361
1657079222412,1460,424,370
1657079222452,730,145,418
1657079222492,388,200,303
1657079222532,24,203,139
1657079222572,-168,195,34
1657079222612,-154,264,-86
1657079222652,-60,315,-78
1657079222692,390,375,51
1657079222732,1027,665,166
1657079222772,1976,894,139
1657079222812,2046,627,102
1657079222852,1484,252,210
1657079222892,1233,244,138
1657079222932,1145,24,3
1657079222972,971,-195,54
1657079223012,1243,-298,55
1657079223052,863,-294,-145
1657079223092,913,-42,-78
1657079223132,1558,98,160
1657079223172,2046,477,427
1657079223212,2046,465,623
1657079223252,1716,453,557
1657079223292,857,383,359
1657079223332,334,324,163
1657079223372,143,313,-4
1657079223412,87,220,-49
1657079223452,147,186,-26
1657079223492,208,202,-43
1657079223532,352,373,15
1657079223572,1049,660,295
1657079223612,2046,752,476
1657079223652,2046,452,387
1657079223692,1560,171,224
1657079223732,1164,35,-42
1657079223772,943,-99,-86
1657079223812,778,-385,-77
1657079223852,638,-354,-158
1657079223892,647,-267,-202
1657079223932,726,-199,-129
1657079223972,1201,-235,231
1657079224012,2046,99,183
1657079224052,2046,482,-1
1657079224092,1717,313,173
1657079224132,1219,99,209
1657079224172,641,0,94
1657079224212,324,-23,6
1657079224252,260,-8,-71
1657079224292,225,-12,-137
1657079224332,141,-12,-138
1657079224372,332,90,-135
1657079224412,541,186,-70
1657079224452,996,429,163
1657079224492,1872,625,234
1657079224532,1959,418,349
1657079224572,1765,56,283
1657079224612,1359,-25,-44
1657079224652,1122,-38,-99
1657079224692,896,-46,-169
1657079224732,821,-141,-139
1657079224772,926,-77,0
1657079224812,823,-295,45
1657079224852,834,-89,-2
1657079224892,981,-126,-14
1657079224932,1944,27,-25
1657079224972,2046,-385,211
1657079225012,1821,109,134
1657079225052,1227,221,-43
1657079225092,628,79,127
1657079225132,266,81,106
1657079225172,147,143,-18
1657079225212,175,181,-41
1657079225252,258,128,7
1657079225292,179,189,-22
1657079225332,281,463,115
1657079225372,1388,681,425
1657079225412,2046,669,456
1657079225452,2046,331,394
1657079225492,1735,-75,247
1657079225532,1315,-54,-43
1657079225572,1032,-113,-163
1657079225612,900,-172,-180
1657079225652,720,-195,-182
1657079225692,556,-247,-143
1657079225732,705,-439,50
1657079225772,1075,-592,373
1657079225812,2046,58,386
1657079225852,2046,153,561
1657079225892,2022,178,639
1657079225932,1266,251,414
1657079225972,732,226,295
1657079226012,239,261,201
1657079226052,-84,271,4
1657079226092,-190,222,-189
1657079226132,38,421,-259
1657079226172,-93,169,-5
1657079226212,228,232,307
1657079226252,2046,468,1004
1657079226292,2046,219,853
1657079226332,2046,36,564
1657079226372,1434,-63,233
1657079226412,1015,41,-77
1657079226452,834,-85,-133
1657079226492,741,-235,-95
1657079226532,609,-248,-189
1657079226572,476,-137,-217
1657079226612,681,-204,-114
1657079226652,1642,-316,320
1657079226692,2046,-94,405
1657079226732,2046,-97,619
1657079226772,1655,87,447
1657079226812,986,91,263
1657079226852,587,143,141
1657079226892,324,173,51
1657079226932,182,155,-77
1657079226972,59,71,5
1657079227012,42,170,58
1657079227052,-43,127,119
1657079227092,992,219,461
1657079227132,1992,411,713
1657079227172,2046,364,575
1657079227212,1771,122,320
1657079227252,1324,-149,256
1657079227292,923,-280,119
1657079227332,701,-355,46
1657079227372,655,-325,-66
1657079227412,561,-119,-335
1657079227452,649,-229,-290
1657079227492,1282,-481,264
1657079227532,2046,-123,419
1657079227572,2046,24,654
1657079227612,1838,35,561
1657079227652,1445,275,352
1657079227692,867,187,203
1657079227732,562,157,142
1657079227772,300,186,86
1657079227812,124,173,46
1657079227852,123,305,-37
1657079227892,37,202,-73
1657079227932,270,261,0
1657079227972,933,188,393
1657079228012,2041,334,687
1657079228052,2046,300,449
1657079228092,1721,161,210
1657079228132,1201,24,82
1657079228172,904,-91,23
1657079228212,997,-243,0
1657079228252,806,-329,-127
1657079228292,673,-327,-150
1657079228332,656,-367,-112
1657079228372,1137,-406,34
1657079228412,2046,-130,375
1657079228452,2046,79,474
1657079228492,1821,80,694
1657079228532,1461,259,526
1657079228572,1063,347,377
1657079228612,584,249,250
1657079228652,206,112,174
1657079228692,17,88,31
1657079228732,5,106,24
1657079228772,7,141,-9
1657079228812,78,272,7
1657079228852,315,462,303
1657079228892,1325,847,740
1657079228932,1804,889,727
1657079228972,2046,694,814
1657079229012,1948,-52,926
1657079229052,1551,-296,540
1657079229092,1140,-171,21
1657079229132,1021,-425,-21
1657079229172,1056,-315,-144
1657079229212,962,-96,-286
1657079229252,1248,-46,-75
1657079229292,1795,-391,633
1657079229332,2046,25,737
1657079229372,1885,315,615
1657079229412,1263,211,611
1657079229452,646,220,441
1657079229492,127,262,111
1657079229532,0,342,-16
1657079229572,71,304,8
1657079229612,130,291,16
1657079229652,53,290,14
1657079229692,757,625,349
1657079229732,1622,891,678
1657079229772,2046,723,679
1657079229812,2046,-253,564
1657079229852,1594,-457,169
1657079229892,1183,-398,-193
1657079229932,942,-390,-319
1657079229972,587,-277,-376
1657079230012,242,-159,-383
1657079230052,182,-171,-295
1657079230092,552,-496,-103
1657079230132,2046,-488,453
1657079230172,2046,-356,509
1657079230212,2046,116,495
1657079230252,2046,110,515
1657079230292,1124,72,483
1657079230332,180,95,311
1657079230372,-257,264,94
1657079230412,-373,413,-35
1657079230452,-454,744,-450
1657079230492,-186,145,-105
1657079230532,560,34,65
1657079230572,768,-200,377
1657079230612,2046,108,958
1657079230652,1988,112,502
1657079230692,1886,19,343
1657079230732,1406,-284,295
1657079230772,1109,-333,251
1657079230812,839,-310,209
1657079230852,734,-448,136
1657079230892,820,-548,90
1657079230932,842,-603,19
1657079230972,1319,-722,178
1657079231012,1696,-826,797
1657079231052,2046,-303,1047
1657079231092,2046,-55,1121
1657079231132,1392,42,791
1657079231172,827,97,525
1657079231212,352,101,208
1657079231252,210,253,45
1657079231292,151,306,-101
1657079231332,65,309,-166
1657079231372,81,253,-53
1657079231412,97,302,-4
1657079231452,785,456,259
1657079231492,1493,767,736
1657079231532,1773,694,828
1657079231572,1664,324,904
1657079231612,1388,232,721
1657079231652,1556,208,552
1657079231692,1377,-135,592
1657079231732,1268,-389,481
1657079231772,994,-339,140
1657079231812,865,-254,-72
1657079231852,983,-12,-186
1657079231892,1287,109,-81
1657079231932,1911,118,389
1657079231972,2046,19,1085
1657079232012,1872,288,1012
1657079232052,1385,577,666
1657079232092,974,394,526
1657079232132,500,232,415
1657079232172,141,186,252
1657079232212,-89,187,299
1657079232252,-222,213,174
1657079232292,-295,357,-55
1657079232332,-161,595,-33
1657079232372,1123,907,443
1657079232412,2046,781,534
1657079232452,2046,336,431
1657079232492,1575,-43,353
1657079232532,1254,-87,157
1657079232572,1006,-140,-26
1657079232612,1042,-165,-101
1657079232652,780,-213,-150
1657079232692,547,-256,-177
1657079232732,597,-289,-80
1657079232772,876,-206,90
1657079232812,1721,-500,478
1657079232852,2046,-483,845
1657079232892,1867,-180,535
1657079232932,1639,2,349
1657079232972,1471,228,317
1657079233012,695,338,209
1657079233052,200,350,154
1657079233092,-91,316,70
1657079233132,9,208,148
1657079233172,173,224,137
1657079233212,339,221,108
1657079233252,1291,-47,447
1657079233292,1739,78,509
1657079233332,1694,408,442
1657079233372,1528,-350,672
1657079233412,1359,-65,375
1657079233452,1147,-226,260
1657079233492,1029,-383,299
1657079233532,1154,-391,153
1657079233572,822,-383,-90
1657079233612,874,-269,-28
1657079233652,997,-250,94
1657079233692,1961,-30,401
1657079233732,2046,-227,1007
1657079233772,1791,99,888
1657079233812,1572,249,637
1657079233852,930,39,682
1657079233892,465,202,414
1657079233932,186,351,131
1657079233972,-80,412,-120
1657079234012,97,331,-79
1657079234052,192,162,-15
1657079234092,319,343,68
1657079234132,1135,442,566
1657079234172,1535,435,873
1657079234212,2046,288,1120
1657079234252,1775,-86,826
1657079234292,1361,-30,462
1657079234332,1185,-108,242
1657079234372,1068,-292,141
1657079234412,867,-304,-63
1657079234452,724,-119,-218
1657079234492,593,-189,-80
1657079234532,690,79,30
1657079234572,1389,88,424
1657079234612,2046,-182,952
1657079234652,1874,-27,850
1657079234692,1784,154,721
1657079234732,1255,-56,605
1657079234772,817,54,463
1657079234812,377,186,246
1657079234852,101,304,96
1657079234892,22,453,-52
1657079234932,93,409,-130
1657079234972,98,213,35
1657079235012,973,280,546
1657079235052,1172,219,739
1657079235092,2046,125,858
1657079235132,1841,-80,521
1657079235172,1226,-212,389
1657079235212,1008,-95,341
1657079235252,856,-219,179
1657079235292,960,-328,54
1657079235332,672,-321,-79
1657079235372,706,-154,-192
1657079235412,699,-327,-21
1657079235452,1467,-271,256
1657079235492,2046,-263,382
1657079235532,2046,-209,810
1657079235572,1825,212,435
1657079235612,1104,156,296
1657079235652,538,28,203
1657079235692,249,21,166
1657079235732,63,68,111
1657079235772,35,278,-82
1657079235812,261,346,-72
1657079235852,332,241,-76
1657079235892,813,232,23
1657079235932,1212,239,225
1657079235972,2046,159,321
1657079236012,1952,176,-40
1657079236052,1374,-39,-84
1657079236092,1096,-204,-131
1657079236132,748,-161,-135
1657079236172,541,-172,-145
1657079236212,574,-300,-77
1657079236252,739,-335,-86
1657079236292,882,-182,-177
1657079236332,1469,-323,40
1657079236372,2046,-182,77
1657079236412,2046,-17,213
1657079236452,1668,-37,183
1657079236492,967,-67,231
1657079236532,448,-107,183
1657079236572,171,-51,98
1657079236612,30,56,15
1657079236652,104,158,43
1657079236692,150,175,44
1657079236732,-31,387,10
1657079236772,1010,551,417
1657079236812,2046,175,802
1657079236852,2046,-231,642
1657079236892,1557,-65,95
1657079236932,1190,-154,-162
1657079236972,996,-320,-186
1657079237012,661,-357,-196
1657079237052,388,-283,-182
1657079237092,216,-226,-112
1657079237132,371,-228,-43
1657079237172,1182,-485,175
1657079237212,2046,-244,158
1657079237252,2046,-58,200
1657079237292,1570,20,249
1657079237332,890,-183,96
1657079237372,553,-136,-82
1657079237412,445,-91,-67
1657079237452,244,-124,-7
1657079237492,152,-93,15
1657079237532,152,93,-14
1657079237572,-74,101,-126
1657079237612,157,391,139
1657079237652,2046,183,792
1657079237692,2046,240,447
1657079237732,1414,147,29
1657079237772,1311,-38,-76
1657079237812,1201,-317,-244
1657079237852,987,-372,-238
1657079237892,506,-395,-224
1657079237932,197,-294,-232
1657079237972,25,-230,-231
1657079238012,140,-312,-278
1657079238052,869,-766,-144
1657079238092,2046,-563,532
1657079238132,2046,188,237
1657079238172,1526,309,164
1657079238212,1024,-15,244
1657079238252,525,-82,56
1657079238292,320,-95,-42
1657079238332,117,-100,8
1657079238372,71,-46,40
1657079238412,84,132,-33
1657079238452,73,266,-57
1657079238492,988,465,354
1657079238532,2046,228,765
1657079238572,2046,127,552
1657079238612,1658,-8,182
1657079238652,1281,-89,-115
1657079238692,988,-45,-167
1657079238732,757,-84,-89
1657079238772,692,-228,-3
1657079238812,711,-298,-53
1657079238852,687,-273,-75
1657079238892,1162,-381,287
1657079238932,2041,-192,445
1657079238972,2046,36,421
1657079239012,1954,103,400
1657079239052,1138,113,296
1657079239092,704,65,224
1657079239132,378,-37,131
1657079239172,276,-40,-2
1657079239212,225,0,-75
1657079239252,303,100,-39
1657079239292,469,141,-50
1657079239332,735,270,56
1657079239372,1522,55,48
1657079239412,2046,334,337
1657079239452,1655,-127,266
1657079239492,1151,-394,-36
1657079239532,1054,-260,-107
1657079239572,918,-214,-87
1657079239612,763,-291,-84
1657079239652,547,-192,-54
1657079239692,344,-174,-51
1657079239732,345,-241,-49
1657079239772,1123,-370,157
1657079239812,2046,-503,503
1657079239852,2046,-138,398
1657079239892,1363,-69,208
1657079239932,919,-110,290
1657079239972,695,-147,156
1657079240012,610,3,17
1657079240052,583,-31,-25
1657079240092,673,-10,5
1657079240132,556,41,-91
1657079240172,356,85,-68
1657079240212,298,214,28
1657079240252,988,469,249
1657079240292,1521,516,488
1657079240332,2046,497,490
1657079240372,1678,84,432
1657079240412,1379,-175,345
1657079240452,1043,-304,239
1657079240492,736,-350,128
1657079240532,568,-353,79
1657079240572,510,-315,84
1657079240612,608,-198,36
1657079240652,1003,-151,50
1657079240692,2046,34,488
1657079240732,2046,90,944
1657079240772,1640,420,541
1657079240812,1094,365,178
1657079240852,733,177,209
1657079240892,489,99,130
1657079240932,311,11,39
1657079240972,414,102,25
1657079241012,293,33,7
1657079241052,231,123,-28
1657079241092,423,356,-15
1657079241132,1308,570,375
1657079241172,2046,647,466
1657079241212,2046,270,443
1657079241252,1458,28,156
1657079241292,1187,-99,-33
1657079241332,936,-185,-70
1657079241372,641,-299,-62
1657079241412,432,-378,-44
1657079241452,460,-311,-52
1657079241492,744,-382,36
1657079241532,1683,-421,337
1657079241572,2046,8,209
1657079241612,2046,328,197
1657079241652,1523,264,288
1657079241692,876,136,214
1657079241732,391,41,152
1657079241772,173,72,-5
1657079241812,78,133,-84
1657079241852,82,136,-46
1657079241892,132,99,-36
1657079241932,109,88,-111
1657079241972,1280,60,207
1657079242012,2005,279,279
1657079242052,2046,270,210
1657079242092,1570,-77,17
1657079242132,1266,-45,-22
1657079242172,864,-149,-83
1657079242212,601,-275,24
1657079242252,773,-246,123
1657079242292,796,-346,31
1657079242332,704,-306,-51
1657079242372,1186,-307,80
1657079242412,2046,-283,318
1657079242452,2046,56,251
1657079242492,2008,160,299
1657079242532,1210,144,271
1657079242572,741,-13,143
1657079242612,428,-116,29
1657079242652,363,-67,-30
1657079242692,329,110,-80
1657079242732,191,80,-74
1657079242772,194,154,-92
1657079242812,299,112,-161
1657079242852,861,102,180
1657079242892,1742,633,441
1657079242932,1784,446,310
1657079242972,1719,325,220
1657079243012,1552,0,103
1657079243052,1187,-71,21
1657079243092,975,-85,-51
1657079243132,808,-272,-75
1657079243172,753,-428,-21
1657079243212,688,-488,50
1657079243252,783,-525,77
1657079243292,2036,-171,354
1657079243332,2046,297,195
1657079243372,1935,309,565
1657079243412,1487,7,974
1657079243452,997,218,514
1657079243492,502,227,165
1657079243532,247,196,29
1657079243572,94,172,-50
1657079243612,31,222,-89
1657079243652,-5,368,-56
1657079243692,204,512,207
1657079243732,1233,770,439
1657079243772,2046,862,477
1657079243812,1960,331,621
1657079243852,1349,-97,472
1657079243892,995,-75,278
1657079243932,1239,-33,124
1657079243972,1056,-156,130
1657079244012,929,-249,99
1657079244052,960,-215,76
1657079244092,851,-101,63
1657079244132,1314,105,384
1657079244172,2028,200,761
1657079244212,2004,373,894
1657079244252,1905,679,717
1657079244292,1332,536,395
1657079244332,693,271,310
1657079244372,334,197,118
1657079244412,159,138,50
1657079244452,169,189,23
1657079244492,96,224,-75
1657079244532,206,270,-60
1657079244572,623,449,10
1657079244612,1711,589,239
1657079244652,2046,405,436
1657079244692,1854,100,532
1657079244732,1266,-17,196
1657079244772,994,-75,-18
1657079244812,927,-120,0
1657079244852,716,-186,-48
1657079244892,502,-199,-57
1657079244932,404,-192,45
1657079244972,540,-147,126
1657079245012,1373,-158,208
1657079245052,2046,-212,333
1657079245092,2046,-220,304
1657079245132,2044,-137,298
1657079245172,1531,-53,194
1657079245212,1143,7,305
1657079245252,626,18,166
1657079245292,451,88,55
1657079245332,106,172,-34
1657079245372,-39,257,-75
1657079245412,-63,224,-46
1657079245452,-39,214,-174
1657079245492,972,190,172
1657079245532,1772,316,327
1657079245572,1942,328,340
1657079245612,1359,76,219
1657079245652,1453,214,246
1657079245692,1108,-40,100
1657079245732,870,-95,192
1657079245772,1130,-242,215
1657079245812,1202,-509,276
1657079245852,1041,-336,113
1657079245892,1194,-274,323
1657079245932,2045,87,725
1657079245972,2046,509,426
1657079246012,1752,580,339
1657079246052,1433,478,304
1657079246092,945,230,203
1657079246132,743,173,178
1657079246172,375,133,39
1657079246212,199,147,-62
1657079246252,85,144,-92
1657079246292,69,162,-130
1657079246332,0,302,-143
1657079246372,738,656,205
1657079246412,1748,868,378
1657079246452,2046,640,497
1657079246492,1765,161,402
1657079246532,1262,-35,244
1657079246572,925,-13,202
1657079246612,812,-78,175
1657079246652,909,-267,103
1657079246692,790,-333,104
1657079246732,810,-309,35
1657079246772,838,-304,69
1657079246812,1755,-59,454
1657079246852,2046,276,570
1657079246892,2046,509,676
1657079246932,1486,544,510
1657079246972,852,350,342
1657079247012,542,209,211
1657079247052,285,193,120
1657079247092,194,239,95
1657079247132,124,299,-14
1657079247172,4,328,-108
1657079247212,86,501,-84
1657079247252,826,928,400
1657079247292,1698,1234,554
1657079247332,2046,787,879
1657079247372,1718,282,626
1657079247412,1451,287,260
1657079247452,1270,0,128
1657079247492,1015,-156,64
1657079247532,728,-114,-79
1657079247572,619,-99,-287
1657079247612,796,-248,280
1657079247652,860,-79,176
1657079247692,2046,209,240
1657079247732,2046,386,651
1657079247772,1815,488,345
1657079247812,1235,393,148
1657079247852,842,244,64
1657079247892,582,121,73
1657079247932,280,104,39
1657079247972,173,206,29
1657079248012,89,274,-34
1657079248052,140,313,-30
1657079248092,46,377,-123
1657079248132,1173,558,181
1657079248172,1784,498,223
1657079248212,2027,279,266
1657079248252,1551,105,135
1657079248292,1199,207,46
1657079248332,808,57,48
1657079248372,804,-13,142
1657079248412,1050,-185,240
1657079248452,872,-427,190
1657079248492,929,-255,26
1657079248532,1477,-434,196
1657079248572,2046,24,616
1657079248612,2046,399,445
1657079248652,1867,452,536
1657079248692,1237,406,564
1657079248732,683,371,395
1657079248772,311,331,145
1657079248812,101,308,34
1657079248852,108,321,-60
1657079248892,116,318,-58
1657079248932,44,332,-93
1657079248972,540,489,19
1657079249012,1733,591,443
1657079249052,1875,525,248
1657079249092,1533,354,251
1657079249132,1393,113,140
1657079249172,1124,75,-25
1657079249212,868,-61,143
1657079249252,967,172,52
1657079249292,1095,-72,330
1657079249332,1075,-161,232
1657079249372,1070,-40,235
1657079249412,1905,166,446
1657079249452,2046,696,142
1657079249492,1858,588,465
1657079249532,1540,592,584
1657079249572,1003,441,292
1657079249612,647,315,156
1657079249652,367,176,112
1657079249692,200,250,41
1657079249732,132,259,-88
1657079249772,252,386,-149
1657079249812,244,402,-230
1657079249852,940,554,112
1657079249892,1600,583,303
1657079249932,1675,540,302
1657079249972,1315,365,168
1657079250012,1041,286,140
1657079250052,970,177,179
1657079250092,1065,-53,243
1657079250132,1083,-201,255
1657079250172,980,-204,89
1657079250212,1042,-262,87
1657079250252,1175,-275,208
1657079250292,1949,110,277
1657079250332,2046,270,518
1657079250372,2042,502,836
1657079250412,1609,601,489
1657079250452,950,434,332
1657079250492,676,383,269
1657079250532,337,240,129
1657079250572,151,241,25
1657079250612,188,345,-68
1657079250652,250,402,-55
1657079250692,276,538,-75
1657079250732,852,468,6
1657079250772,1933,625,402
1657079250812,1576,298,402
1657079250852,1312,176,168
1657079250892,901,-2,117
1657079250932,1414,100,258
1657079250972,1089,-375,218
1657079251012,897,-264,85
1657079251052,1030,-180,-60
1657079251092,844,-308,123
1657079251132,1327,-136,199
1657079251172,2046,210,538
1657079251212,2046,358,637
1657079251252,1786,572,534
1657079251292,1310,519,286
1657079251332,812,270,195
1657079251372,509,154,40
1657079251412,406,142,-127
1657079251452,268,134,-140
1657079251492,182,127,-96
1657079251532,112,161,-53
1657079251572,362,361,3
1657079251612,1326,572,439
1657079251652,1939,486,518
1657079251692,1884,343,314
1657079251732,1415,80,112
1657079251772,999,-91,14
1657079251812,839,-36,-13
1657079251852,787,-202,5
1657079251892,780,-305,19
1657079251932,920,-371,-2
1657079251972,851,-238,26
1657079252012,1382,-275,248
1657079252052,2046,26,467
1657079252092,2046,327,370
1657079252132,1740,292,318
1657079252172,1290,194,289
1657079252212,726,11,137
1657079252252,480,72,4
1657079252292,345,134,-63
1657079252332,193,162,-29
1657079252372,32,167,-43
1657079252412,-11,266,-100
1657079252452,448,415,61
1657079252492,1595,577,367
1657079252532,2003,559,251
1657079252572,1958,329,102
1657079252612,1476,33,34
1657079252652,1172,106,35
1657079252692,975,-7,-39
1657079252732,943,-220,12
1657079252772,870,-379,36
1657079252812,754,-577,63
1657079252852,715,-428,19
1657079252892,1513,-247,353
1657079252932,2046,168,532
1657079252972,2046,415,369
1657079253012,1502,382,313
1657079253052,1068,196,271
1657079253092,621,-6,134
1657079253132,317,-7,-27
1657079253172,281,97,-68
1657079253212,180,121,-144
1657079253252,276,153,-34
1657079253292,100,96,-99
1657079253332,1419,252,200
1657079253372,2046,419,212
1657079253412,1662,334,-287
1657079253452,1154,148,-238
1657079253492,1065,70,-183
1657079253532,941,-92,-133
1657079253572,801,-179,-52
1657079253612,753,-306,-19
1657079253652,736,-310,-132
1657079253692,917,-294,-93
1657079253732,1010,-336,-214
1657079253772,1550,-409,-85
1657079253812,2046,0,-237
1657079253852,1728,-181,-209
1657079253892,1118,-97,-323
1657079253932,930,-98,-277
1657079253972,719,-153,-63
1657079254012,433,-220,96
1657079254052,460,-61,40
1657079254092,372,-16,-65
1657079254132,406,-11,-144
1657079254172,482,-193,-330
1657079254212,771,-30,-409
1657079254252,1160,82,-511
1657079254292,1458,205,-266
1657079254332,1080,56,-248
1657079254372,659,66,-260
1657079254412,438,76,-181
1657079254452,943,179,117
1657079254492,1497,54,193
1657079254532,1048,-219,152
1657079254572,1510,-80,219
1657079254612,1334,-189,215
1657079254652,1527,-133,457
1657079254692,1870,213,272
1657079254732,2007,155,107
1657079254772,1797,259,392
1657079254812,1338,306,174
1657079254852,923,239,41
1657079254892,562,154,66
1657079254932,390,130,56
1657079254972,370,176,12
1657079255012,267,201,-30
1657079255052,111,195,-76
1657079255092,384,331,-51
1657079255132,1107,515,184
1657079255172,1373,556,50
1657079255212,1520,452,-84
1657079255252,1755,320,-18
1657079255292,1264,-64,45
1657079255332,1149,-51,84
1657079255372,1218,-155,67
1657079255412,906,-286,30
1657079255452,880,-227,58
1657079255492,930,-172,141
1657079255532,1084,-167,341
1657079255572,1651,33,335
1657079255612,2046,85,196
1657079255652,2046,303,242
1657079255692,2046,382,135
1657079255732,1268,539,289
1657079255772,-164,394,207
1657079255812,-578,186,0
1657079255852,-570,142,-127
1657079255892,-339,162,-120
1657079255932,-30,211,-75
1657079255972,199,309,-80
1657079256012,313,321,-101
1657079256052,1602,1044,260
1657079256092,2046,853,34
1657079256132,2046,681,28
1657079256172,1753,201,204
1657079256212,1501,132,233
1657079256252,1268,-52,96
1657079256292,987,-242,61
1657079256332,697,-350,120
1657079256372,806,-177,103
1657079256412,874,-247,199
1657079256452,1840,79,501
1657079256492,2046,447,436
1657079256532,1899,505,444
1657079256572,1471,458,226
1657079256612,1197,385,253
1657079256652,688,370,241
1657079256692,169,344,54
1657079256732,-208,162,-209
1657079256772,0,183,-126
1657079256812,23,104,-15
1657079256852,116,-11,-79
1657079256892,1252,190,630
1657079256932,1859,168,223
1657079256972,1881,166,-374
1657079257012,1250,178,-530
1657079257052,1383,66,-81
1657079257092,1230,-8,-72
1657079257132,800,-149,-114
1657079257172,562,-219,-45
1657079257212,934,-159,94
1657079257252,749,-312,75
1657079257292,1195,-272,69
1657079257332,2046,48,189
1657079257372,2046,4,92
1657079257412,1708,145,175
1657079257452,1184,292,-36
1657079257492,660,92,-96
1657079257532,452,-71,-24
1657079257572,390,-44,35
1657079257612,328,41,42
1657079257652,279,137,75
1657079257692,401,286,21
1657079257732,886,452,76
1657079257772,1482,381,231
1657079257812,1839,352,83
1657079257852,1698,209,-17
1657079257892,1239,17,-50
1657079257932,950,-66,-18
1657079257972,931,-24,29
1657079258012,800,-132,7
1657079258052,853,-117,-17
1657079258092,826,-185,37
1657079258132,952,-128,177
1657079258172,1591,-45,144
1657079258212,1854,66,9
1657079258252,2022,21,114
1657079258292,1590,66,183
1657079258332,935,1,117
1657079258372,592,-88,70
1657079258412,554,-57,76
1657079258452,330,36,-14
1657079258492,373,185,-29
1657079258532,485,228,-31
1657079258572,521,298,-1
1657079258612,894,419,73
1657079258652,1840,488,196
1657079258692,1750,231,199
1657079258732,1517,-28,228
1657079258772,1282,-107,90
1657079258812,1064,-135,28
1657079258852,826,-131,5
1657079258892,660,-155,-2
1657079258932,667,-168,-8
1657079258972,729,-93,-7
1657079259012,808,-65,38
1657079259052,1249,-78,128
1657079259092,1760,-48,106
1657079259132,1949,35,88
1657079259172,1668,2,131
1657079259212,1150,-61,137
1657079259252,817,-87,70
1657079259292,670,-55,56
1657079259332,518,42,-4
1657079259372,345,69,-50
1657079259412,424,153,-28
1657079259452,400,197,-90
1657079259492,747,363,23
1657079259532,1569,396,320
1657079259572,2016,376,351
1657079259612,1605,124,251
1657079259652,1246,-8,60
1657079259692,1166,-63,-5
1657079259732,927,-129,-21
1657079259772,685,-167,-6
1657079259812,479,-170,-12
1657079259852,477,-133,-46
1657079259892,692,-141,-2
1657079259932,1128,-368,37
1657079259972,2046,-3,-83
1657079260012,1972,-62,48
1657079260052,1439,-102,199
1657079260092,980,-72,115
1657079260132,715,-87,62
1657079260172,580,-70,53
1657079260212,388,4,1
1657079260252,378,77,-39
1657079260292,495,117,0
1657079260332,628,207,45
1657079260372,1092,168,108
1657079260412,1665,-26,182
1657079260452,1671,208,248
1657079260492,1542,280,20
1657079260532,1158,209,-104
1657079260572,1040,153,-13
1657079260612,935,-62,-5
1657079260652,708,-223,62
1657079260692,640,-267,80
1657079260732,542,-324,39
1657079260772,600,-216,-56
1657079260812,1464,-299,110
1657079260852,2046,-263,315
1657079260892,2046,-47,493
1657079260932,1548,-161,269
1657079260972,1195,20,188
1657079261012,1020,185,123
1657079261052,711,-14,35
1657079261092,472,-43,55
1657079261132,297,-10,51
1657079261172,230,128,16
1657079261212,154,150,-74
1657079261252,691,311,139
1657079261292,1602,429,270
1657079261332,2046,324,231
1657079261372,1600,-14,76
1657079261412,1335,63,-131
1657079261452,1358,-25,-236
1657079261492,1088,-190,-206
1657079261532,672,-252,-170
1657079261572,383,-242,-119
1657079261612,209,-207,-120
1657079261652,281,-208,-198
1657079261692,916,-367,-188
1657079261732,2046,-211,-58
1657079261772,2046,-214,-60
1657079261812,1558,-39,2
1657079261852,1081,-95,28
1657079261892,798,-113,47
1657079261932,603,-73,-2
1657079261972,389,1,-37
1657079262012,307,67,-32
1657079262052,348,104,0
1657079262092,312,218,-15
1657079262132,811,325,103
1657079262172,1977,481,231
1657079262212,2046,203,242
1657079262252,1644,-51,157
1657079262292,1174,-74,-97
1657079262332,987,-188,-122
1657079262372,869,-237,-108
1657079262412,657,-262,-113
1657079262452,503,-242,-171
1657079262492,531,-340,-97
1657079262532,670,-351,-29
1657079262572,1364,-257,156
1657079262612,2046,-121,240
1657079262652,1815,-69,251
1657079262692,1374,122,127
1657079262732,1008,70,-20
1657079262772,865,-80,-15
1657079262812,743,-35,-89
1657079262852,546,6,-100
1657079262892,372,3,-82
1657079262932,275,37,-47
1657079262972,449,251,49
1657079263012,675,365,73
1657079263052,1982,452,223
1657079263092,2046,315,40
1657079263132,1527,69,-5
1657079263172,1275,-107,-53
1657079263212,1064,-149,-112
1657079263252,845,-129,-137
1657079263292,609,-139,-143
1657079263332,391,-185,-82
1657079263372,294,-187,-32
1657079263412,477,-135,-78
1657079263452,1171,-141,-1
1657079263492,2046,-230,109
1657079263532,2033,-213,-39
1657079263572,1742,-115,-44
1657079263612,1149,-144,-40
1657079263652,911,-241,-37
1657079263692,838,-173,15
1657079263732,552,-93,-31
1657079263772,315,-38,-59
1657079263812,301,56,-62
1657079263852,351,115,-110
1657079263892,205,224,-92
1657079263932,762,571,172
1657079263972,1644,591,309
1657079264012,2046,566,256
1657079264052,1938,74,337
1657079264092,1521,-190,162
1657079264132,1156,-176,-93
1657079264172,865,-127,-126
1657079264212,599,-180,-166
1657079264252,479,-184,-159
1657079264292,484,-191,-137
1657079264332,686,-154,-161
1657079264372,1214,-119,-22
1657079264412,2046,-359,261
1657079264452,2046,167,598
1657079264492,1507,339,71
1657079264532,898,148,107
1657079264572,610,-47,181
1657079264612,367,-102,157
1657079264652,265,35,62
1657079264692,156,146,6
1657079264732,288,322,51
1657079264772,272,615,54
1657079264812,504,766,248
1657079264852,1343,852,475
1657079264892,1735,773,497
1657079264932,1548,736,631
1657079264972,1416,521,673
1657079265012,1261,278,630
1657079265052,1334,34,482
1657079265092,1111,-276,352
1657079265132,969,-265,212
1657079265172,847,-187,76
1657079265212,1100,-24,128
1657079265252,1864,267,484
1657079265292,2046,748,528
1657079265332,1909,1064,488
1657079265372,1376,604,823
1657079265412,1112,201,921
1657079265452,765,210,491
1657079265492,554,298,226
1657079265532,212,321,96
1657079265572,46,433,38
1657079265612,-76,449,109
1657079265652,-254,445,60
1657079265692,41,468,36
1657079265732,1528,688,577
1657079265772,2046,542,515
1657079265812,1742,152,344
1657079265852,1734,306,294
1657079265892,1241,96,114
1657079265932,917,-70,0
1657079265972,887,-105,-34
1657079266012,872,-248,-43
1657079266052,692,-265,-95
1657079266092,704,-226,-16
1657079266132,1196,-97,-81
1657079266172,1996,663,290
1657079266212,2046,759,981
1657079266252,1623,263,1187
1657079266292,893,377,655
1657079266332,520,318,346
1657079266372,238,278,129
1657079266412,195,258,19
1657079266452,206,233,-67
1657079266492,97,287,-45
1657079266532,133,448,126
1657079266572,82,809,490
1657079266612,1064,1400,889
1657079266652,1881,1494,997
1657079266692,1539,777,1131
1657079266732,1813,663,890
1657079266772,1759,365,465
1657079266812,1334,-188,301
1657079266852,932,-451,123
1657079266892,764,-351,-91
1657079266932,794,-92,-150
1657079266972,1198,181,99
1657079267012,2046,454,665
1657079267052,2046,907,894
1657079267092,1986,841,938
1657079267132,1459,762,903
1657079267172,831,656,758
1657079267212,158,325,542
1657079267252,-57,222,318
1657079267292,-37,262,156
1657079267332,-14,445,-32
1657079267372,43,647,-233
1657079267412,523,771,100
1657079267452,1611,509,371
1657079267492,1871,387,508
1657079267532,1702,232,429
1657079267572,1589,175,191
1657079267612,1219,-25,100
1657079267652,1011,-50,84
1657079267692,783,-135,56
1657079267732,662,-250,30
1657079267772,763,-146,-46
1657079267812,797,-151,16
1657079267852,983,-175,189
1657079267892,1960,42,375
1657079267932,2046,260,194
1657079267972,2046,365,272
1657079268012,1687,237,236
1657079268052,1083,191,262
1657079268092,499,120,183
1657079268132,157,106,72
1657079268172,56,193,-12
1657079268212,-24,278,-79
1657079268252,62,264,-68
1657079268292,231,273,-17
1657079268332,823,547,180
1657079268372,1756,662,411
1657079268412,2046,667,181
1657079268452,1796,494,-2
1657079268492,1559,310,-38
1657079268532,1298,132,-11
1657079268572,1065,-82,-81
1657079268612,903,-175,-136
1657079268652,773,-186,-232
1657079268692,1067,-143,-297
1657079268732,1020,87,-260
1657079268772,1239,206,-243
1657079268812,1547,478,-583
1657079268852,1355,460,-862
1657079268892,1026,416,-769
1657079268932,1035,277,-153
1657079268972,826,-57,241
1657079269012,406,-284,134
1657079269052,299,-47,-85
1657079269092,399,-5,-228
1657079269132,532,111,-192
1657079269172,552,139,-234
1657079269212,916,388,-435
1657079269252,1618,636,-514
1657079269292,1938,513,-587
1657079269332,1298,221,-611
1657079269372,1092,80,-596
1657079269412,988,77,-540
1657079269452,954,104,-312
1657079269492,706,5,-125
1657079269532,452,-102,37
1657079269572,372,-198,85
1657079269612,631,-168,6
1657079269652,1004,-283,-156
1657079269692,1828,-138,-424
1657079269732,1926,-91,-608
1657079269772,1737,113,-671
1657079269812,1075,67,-485
1657079269852,681,-71,-254
1657079269892,560,-197,-78
1657079269932,554,-101,-51
1657079269972,377,-48,-128
1657079270012,544,21,-133
1657079270052,634,58,-175
1657079270092,754,39,-311
1657079270132,1314,216,-583
1657079270172,1725,324,-528
1657079270212,1565,244,-369
1657079270252,1182,11,-289
1657079270292,1031,-37,-355
1657079270332,907,-51,-403
1657079270372,731,-87,-386
1657079270412,536,-159,-230
1657079270452,386,-218,-52
1657079270492,458,-229,70
1657079270532,708,-353,-52
1657079270572,1429,-516,-176
1657079270612,2046,-52,-509
1657079270652,1883,-84,-508
1657079270692,1197,-98,-428
1657079270732,891,-172,-272
1657079270772,823,-178,-139
1657079270812,585,-158,-96
1657079270852,421,-111,-101
1657079270892,412,-12,-111
1657079270932,476,37,-159
1657079270972,522,18,-203
1657079271012,922,99,-183
1657079271052,1719,355,-179
1657079271092,1825,243,-154
1657079271132,1361,16,-294
1657079271172,1374,19,-352
1657079271212,1153,-80,-367
1657079271252,830,-162,-300
1657079271292,594,-208,-179
1657079271332,425,-258,-38
1657079271372,553,-236,67
1657079271412,506,-305,-28
1657079271452,969,-561,-27
1657079271492,2046,-229,-107
1657079271532,2046,-167,-148
1657079271572,1573,-11,-222
1657079271612,964,-46,-173
1657079271652,626,-141,-124
1657079271692,525,-170,-76
1657079271732,415,-91,-108
1657079271772,413,-92,-99
1657079271812,619,4,-67
1657079271852,497,-6,-98
1657079271892,731,138,-120
1657079271932,1429,298,63
1657079271972,2046,361,-12
1657079272012,1602,-7,-330
1657079272052,1407,-117,-352
1657079272092,1351,-293,-204
1657079272132,1028,-340,-227
1657079272172,700,-312,-172
1657079272212,415,-306,-81
1657079272252,256,-226,-50
1657079272292,398,-239,-130
1657079272332,982,-553,-85
1657079272372,2040,-564,130
1657079272412,2046,-392,206
1657079272452,1589,-249,16
1657079272492,964,-128,1
1657079272532,551,-98,-42
1657079272572,324,-117,-145
1657079272612,263,-97,-202
1657079272652,417,-73,-147
1657079272692,745,-51,48
1657079272732,612,-118,62
1657079272772,786,52,46
1657079272812,1402,113,22
1657079272852,1805,64,0
1657079272892,1708,-132,-104
1657079272932,1548,-137,-249
1657079272972,1236,-159,-259
1657079273012,916,-158,-230
1657079273052,628,-137,-167
1657079273092,503,-104,-37
1657079273132,503,-189,92
1657079273172,633,-338,247
1657079273212,1092,-427,181
1657079273252,1655,-493,98
1657079273292,1877,-342,-97
1657079273332,1668,-279,-197
1657079273372,1244,2,-336
1657079273412,908,88,-438
1657079273452,707,-116,-161
1657079273492,670,-262,129
1657079273532,732,-176,227
1657079273572,609,-157,230
1657079273612,408,-136,273
1657079273652,446,-66,346
1657079273692,518,13,41
1657079273732,1264,228,-187
1657079273772,1927,305,21
1657079273812,1691,-27,-321
1657079273852,1269,-53,-438
1657079273892,1194,-91,-359
1657079273932,1040,-166,-278
1657079273972,1040,-365,-150
1657079274012,848,-324,-151
1657079274052,585,-160,-172
1657079274092,852,-154,-61
1657079274132,1308,-288,-182
1657079274172,1498,-140,-382
1657079274212,1380,198,-591
1657079274252,1112,252,-599
1657079274292,857,144,-400
1657079274332,583,21,-247
1657079274372,656,-130,-226
1657079274412,436,-45,-571
1657079274452,643,165,-466
1657079274492,599,153,-502
1657079274532,928,396,-544
