timestamp,accel_X,accel_Y,accel_Z
1657081065328,-312,-871,-437
1657081065368,-312,-877,-439
1657081065408,-310,-874,-446
1657081065448,-312,-869,-445
1657081065488,-308,-874,-442
1657081065528,-314,-871,-449
1657081065568,-319,-877,-437
1657081065608,-308,-868,-452
1657081065648,-312,-865,-450
1657081065688,-312,-869,-445
1657081065728,-316,-868,-451
1657081065768,-306,-866,-442
1657081065808,-311,-869,-450
1657081065848,-307,-866,-448
1657081065888,-305,-871,-448
1657081065928,-310,-868,-457
1657081065968,-308,-868,-450
1657081066008,-307,-871,-458
1657081066048,-311,-867,-452
1657081066088,-303,-868,-460
1657081066128,-304,-869,-453
1657081066168,-306,-860,-463
1657081066208,-309,-877,-458
1657081066248,-297,-869,-461
1657081066288,-301,-861,-469
1657081066328,-299,-868,-463
1657081066368,-300,-861,-471
1657081066408,-297,-869,-474
1657081066448,-299,-860,-460
1657081066488,-301,-871,-465
1657081066528,-293,-865,-466
1657081066568,-299,-862,-469
1657081066608,-300,-861,-461
1657081066648,-297,-869,-469
1657081066688,-292,-860,-461
1657081066728,-302,-865,-468
1657081066768,-300,-862,-469
1657081066808,-299,-861,-467
1657081066848,-295,-863,-472
1657081066888,-299,-866,-470
1657081066928,-297,-868,-467
1657081066968,-295,-864,-480
1657081067008,-286,-869,-474
1657081067048,-295,-861,-471
1657081067088,-296,-863,-468
1657081067128,-290,-861,-470
1657081067168,-291,-861,-458
1657081067208,-301,-864,-478
1657081067248,-291,-866,-474
1657081067288,-296,-867,-471
1657081067328,-290,-861,-466
1657081067368,-292,-864,-479
1657081067408,-290,-866,-475
1657081067448,-290,-867,-473
1657081067488,-296,-864,-472
1657081067528,-292,-865,-476
1657081067568,-292,-870,-472
1657081067608,-291,-863,-473
1657081067648,-288,-865,-481
1657081067688,-297,-867,-481
1657081067728,-288,-866,-478
1657081067768,-286,-865,-483
1657081067808,-290,-850,-485
1657081067848,-298,-864,-471
1657081067888,-292,-868,-468
1657081067928,-287,-858,-473
1657081067968,-295,-866,-471
1657081068008,-297,-873,-462
1657081068048,-299,-862,-470
1657081068088,-292,-869,-466
1657081068128,-294,-863,-459
1657081068168,-286,-876,-458
1657081068208,-288,-931,-497
1657081068248,-314,-816,-416
1657081068288,-296,-907,-466
1657081068328,-241,-826,-460
1657081068368,-356,-868,-60
1657081068408,-404,-1112,-237
1657081068448,-265,-974,-429
1657081068488,-206,-997,-334
1657081068528,-267,-928,-385
1657081068568,-255,-912,-411
1657081068608,-216,-907,-409
1657081068648,-248,-919,-400
1657081068688,-240,-913,-417
1657081068728,-206,-901,-449
1657081068768,-221,-910,-446
1657081068808,-212,-905,-414
1657081068848,-238,-922,-434
1657081068888,-226,-903,-432
1657081068928,-212,-895,-451
1657081068968,-224,-901,-451
1657081069008,-225,-903,-433
1657081069048,-221,-895,-440
1657081069088,-224,-875,-444
1657081069128,-230,-896,-453
1657081069168,-243,-899,-439
1657081069208,-218,-886,-460
1657081069248,-208,-875,-474
1657081069288,-234,-886,-473
1657081069328,-241,-905,-438
1657081069368,-238,-884,-452
1657081069408,-218,-890,-461
1657081069448,-241,-896,-473
1657081069488,-228,-893,-426
1657081069528,-236,-913,-443
1657081069568,-217,-888,-457
1657081069608,-195,-885,-432
1657081069648,-200,-861,-395
1657081069688,-332,-923,-496
1657081069728,-201,-889,-392
1657081069768,-223,-910,-425
1657081069808,-252,-868,-516
1657081069848,-180,-886,-420
1657081069888,-266,-926,-452
1657081069928,-244,-936,-390
1657081069968,-259,-923,-414
1657081070008,-230,-910,-432
1657081070048,-271,-918,-392
1657081070088,-238,-900,-407
1657081070128,-236,-920,-419
1657081070168,-264,-923,-426
1657081070208,-231,-893,-406
1657081070248,-262,-939,-398
1657081070288,-304,-908,-412
1657081070328,-322,-916,-489
1657081070368,-411,-900,-443
1657081070408,-370,-866,-421
1657081070448,-336,-863,-429
1657081070488,-449,-837,-546
1657081070528,-458,-739,-476
1657081070568,-461,-711,-546
1657081070608,-448,-702,-489
1657081070648,-505,-642,-679
1657081070688,739,-640,-1961
1657081070728,-423,-629,-654
1657081070768,-341,-642,-749
1657081070808,-201,-715,-700
1657081070848,-361,-641,-757
1657081070888,-404,-645,-684
1657081070928,-282,-590,-737
1657081070968,-344,-583,-817
1657081071008,-371,-641,-679
1657081071048,-382,-627,-702
1657081071088,-367,-607,-741
1657081071128,-429,-610,-695
1657081071168,-721,-666,-629
1657081071208,-482,-606,-653
1657081071248,-485,-629,-699
1657081071288,-487,-614,-653
1657081071328,-510,-638,-628
1657081071368,-515,-644,-659
1657081071408,-297,-703,-943
1657081071448,-443,-629,-682
1657081071488,-423,-645,-675
1657081071528,-390,-602,-728
1657081071568,-511,-553,-943
1657081071608,-351,-552,-634
1657081071648,-112,-940,-731
1657081071688,-279,-831,-719
1657081071728,-343,-689,-663
1657081071768,-427,-628,-762
1657081071808,-349,-597,-774
1657081071848,-386,-603,-726
1657081071888,-393,-602,-703
1657081071928,-372,-574,-732
1657081071968,-430,-642,-725
1657081072008,-434,-626,-670
1657081072048,-360,-602,-654
1657081072088,-448,-665,-648
1657081072128,-573,-698,-592
1657081072168,-546,-697,-570
1657081072208,-636,-723,-476
1657081072248,-434,-661,-463
1657081072288,-577,-664,-657
1657081072328,-441,-670,-568
1657081072368,-510,-715,-578
1657081072408,-398,-701,-620
1657081072448,-314,-741,-596
1657081072488,-709,-721,-450
1657081072528,-631,-736,-429
1657081072568,-502,-786,-490
1657081072608,-772,-616,-212
1657081072648,-432,-857,-447
1657081072688,-524,-719,-502
1657081072728,-543,-653,-453
1657081072768,-708,-731,-233
1657081072808,-659,-741,-256
1657081072848,-688,-728,-358
1657081072888,-562,-756,-419
1657081072928,-639,-822,-383
1657081072968,-417,-828,-429
1657081073008,-529,-726,-478
1657081073048,-537,-724,-461
1657081073088,-464,-746,-425
1657081073128,-640,-791,-296
1657081073168,-566,-773,-247
1657081073208,-874,-970,-356
1657081073248,-548,-764,-294
1657081073288,-675,-736,-256
1657081073328,-516,-655,-347
1657081073368,-421,-714,-360
1657081073408,-484,-884,-378
1657081073448,-394,-867,-371
1657081073488,-472,-876,-376
1657081073528,-482,-862,-396
1657081073568,-505,-834,-355
1657081073608,-446,-804,-358
1657081073648,-528,-804,-377
1657081073688,-445,-800,-373
1657081073728,-508,-839,-327
1657081073768,-509,-791,-363
1657081073808,-556,-613,-97
1657081073848,-659,-922,-543
1657081073888,-433,-1024,-405
1657081073928,-481,-816,-571
1657081073968,-607,-785,-445
1657081074008,-498,-739,-381
1657081074048,-584,-750,-425
1657081074088,-568,-764,-429
1657081074128,-509,-711,-375
1657081074168,-624,-798,-379
1657081074208,-532,-761,-471
1657081074248,-444,-766,-436
1657081074288,-1497,-1298,772
1657081074328,-14,-1107,-55
1657081074368,-517,-1228,160
1657081074408,178,-879,735
1657081074448,207,-864,760
1657081074488,29,-1005,368
1657081074528,-78,-1136,394
1657081074568,-38,-1460,185
1657081074608,-32,-1590,-88
1657081074648,-47,-1581,-313
1657081074688,-129,-1477,-461
1657081074728,-164,-1446,-459
1657081074768,164,-1438,-594
1657081074808,347,-997,-115
1657081074848,130,-1022,303
1657081074888,-123,-1052,396
1657081074928,-194,-1078,217
1657081074968,-190,-995,219
1657081075008,-59,-946,342
1657081075048,-42,-953,362
1657081075088,-54,-983,326
1657081075128,-130,-975,287
1657081075168,-291,-989,218
1657081075208,-404,-1091,213
1657081075248,-391,-1242,235
1657081075288,-322,-1370,232
1657081075328,-257,-1513,243
1657081075368,-177,-1448,327
1657081075408,-89,-1282,383
1657081075448,-8,-1116,420
1657081075488,60,-945,408
1657081075528,116,-798,356
1657081075568,165,-689,305
1657081075608,173,-629,249
1657081075648,109,-683,204
1657081075688,29,-771,181
1657081075728,-16,-921,220
1657081075768,-35,-1118,312
1657081075808,-95,-1322,395
1657081075848,-197,-1542,392
1657081075888,-312,-1713,269
1657081075928,-401,-1699,94
1657081075968,-399,-1563,-58
1657081076008,-339,-1304,-79
1657081076048,-302,-1002,88
1657081076088,-285,-797,236
1657081076128,-198,-761,257
1657081076168,-104,-902,256
1657081076208,-99,-921,349
1657081076248,-177,-1007,358
1657081076288,635,-1332,61
1657081076328,858,-957,9
1657081076368,378,-934,353
1657081076408,-279,-1166,545
1657081076448,-298,-927,439
1657081076488,-246,-907,336
1657081076528,-96,-885,323
1657081076568,-19,-904,304
1657081076608,20,-919,241
1657081076648,-11,-990,193
1657081076688,-20,-1030,179
1657081076728,-50,-1021,224
1657081076768,-113,-1058,237
1657081076808,-201,-990,230
1657081076848,-250,-942,149
1657081076888,-265,-946,63
1657081076928,-270,-1048,61
1657081076968,-313,-1227,127
1657081077008,-323,-1306,291
1657081077048,-515,-1497,190
1657081077088,-590,-1509,185
1657081077128,-438,-1478,430
1657081077168,-262,-1352,383
1657081077208,-83,-1175,311
1657081077248,76,-908,239
1657081077288,159,-634,180
1657081077328,137,-511,176
1657081077368,72,-572,152
1657081077408,57,-681,151
1657081077448,55,-821,182
1657081077488,48,-1097,211
1657081077528,-3,-1366,293
1657081077568,-139,-1509,328
1657081077608,-303,-1447,281
1657081077648,-429,-1324,173
1657081077688,-457,-1254,135
1657081077728,-296,-1336,220
1657081077768,-60,-1239,276
1657081077808,96,-1042,248
1657081077848,43,-946,243
1657081077888,-76,-1014,186
1657081077928,-92,-994,51
1657081077968,-131,-1019,3
1657081078008,-161,-1029,22
1657081078048,-125,-996,20
1657081078088,-61,-957,61
1657081078128,1,-981,106
1657081078168,54,-1037,146
1657081078208,55,-1067,190
1657081078248,-2,-1220,267
1657081078288,-87,-1238,259
1657081078328,-115,-1063,303
1657081078368,-121,-856,354
1657081078408,-128,-811,269
1657081078448,-209,-912,158
1657081078488,-306,-1071,178
1657081078528,-362,-1251,275
1657081078568,-430,-1381,324
1657081078608,-446,-1485,414
1657081078648,-356,-1495,483
1657081078688,-235,-1363,435
1657081078728,-117,-1238,353
1657081078768,20,-1071,293
1657081078808,127,-864,226
1657081078848,167,-692,217
1657081078888,142,-625,199
1657081078928,102,-645,177
1657081078968,63,-711,177
1657081079008,68,-842,199
1657081079048,72,-1109,242
1657081079088,0,-1323,309
1657081079128,-109,-1525,332
1657081079168,-241,-1634,314
1657081079208,-381,-1503,213
1657081079248,-444,-1418,100
1657081079288,-430,-1350,41
1657081079328,-334,-1277,115
1657081079368,-258,-1150,199
1657081079408,-185,-1058,251
1657081079448,-108,-1013,200
1657081079488,-70,-936,125
1657081079528,-88,-933,83
1657081079568,-114,-961,93
1657081079608,-129,-1006,115
1657081079648,152,-1063,83
1657081079688,495,-928,131
1657081079728,397,-827,223
1657081079768,-23,-1023,241
1657081079808,-202,-1038,124
1657081079848,-109,-1015,206
1657081079888,-102,-1016,224
1657081079928,-115,-1075,229
1657081079968,-197,-1087,152
1657081080008,-323,-1069,9
1657081080048,-487,-1139,-12
1657081080088,-489,-1313,139
1657081080128,-347,-1430,257
1657081080168,-296,-1514,304
1657081080208,-242,-1506,394
1657081080248,-182,-1382,409
1657081080288,-87,-1193,394
1657081080328,6,-1015,394
1657081080368,90,-856,324
1657081080408,141,-737,218
1657081080448,135,-655,161
1657081080488,100,-619,165
1657081080528,90,-661,193
1657081080568,100,-763,237
1657081080608,79,-956,275
1657081080648,7,-1249,320
1657081080688,-75,-1627,287
1657081080728,-200,-1876,176
1657081080768,-359,-1809,69
1657081080808,-306,-1565,21
1657081080848,-401,-1240,-28
1657081080888,-339,-1051,-16
1657081080928,-248,-1017,95
1657081080968,-118,-1045,224
1657081081008,-85,-890,335
1657081081048,-199,-865,387
1657081081088,-315,-963,238
1657081081128,-345,-1028,119
1657081081168,-316,-1169,63
1657081081208,935,-1451,-64
1657081081248,1291,-851,535
1657081081288,354,-797,326
1657081081328,-520,-1373,188
1657081081368,-468,-1163,113
1657081081408,-221,-1098,141
1657081081448,-38,-1047,208
1657081081488,-83,-1089,252
1657081081528,-158,-1101,339
1657081081568,-220,-981,290
1657081081608,-309,-931,186
1657081081648,-394,-981,156
1657081081688,-300,-1051,291
1657081081728,-89,-1110,522
1657081081768,-823,-1312,290
1657081081808,-102,-1364,260
1657081081848,-503,-1300,205
1657081081888,-262,-1153,260
1657081081928,-108,-1036,398
1657081081968,30,-851,320
1657081082008,90,-738,324
1657081082048,111,-687,303
1657081082088,75,-708,249
1657081082128,7,-790,196
1657081082168,1,-864,206
1657081082208,-9,-1008,249
1657081082248,-31,-1260,296
1657081082288,-84,-1517,301
1657081082328,-221,-1531,274
1657081082368,-359,-1364,175
1657081082408,-447,-1157,4
1657081082448,-439,-1163,-85
1657081082488,-279,-1238,-25
1657081082528,-123,-1237,155
1657081082568,-85,-1043,272
1657081082608,-153,-917,279
1657081082648,-141,-919,162
1657081082688,-4,-917,55
1657081082728,103,-902,39
1657081082768,96,-863,87
1657081082808,-26,-912,116
1657081082848,-85,-985,64
1657081082888,-90,-1001,53
1657081082928,-125,-993,87
1657081082968,-127,-1045,118
1657081083008,-132,-1154,146
1657081083048,-200,-1286,151
1657081083088,-378,-1270,100
1657081083128,-597,-1197,33
1657081083168,-591,-1267,171
1657081083208,-271,-1462,306
1657081083248,-56,-1523,359
1657081083288,-22,-1392,397
1657081083328,-96,-1186,405
1657081083368,-138,-985,385
1657081083408,-66,-840,324
1657081083448,57,-716,271
1657081083488,138,-624,222
1657081083528,148,-572,212
1657081083568,77,-702,201
1657081083608,54,-832,226
1657081083648,49,-966,298
1657081083688,1,-1191,349
1657081083728,-86,-1543,364
1657081083768,-214,-1724,251
1657081083808,-318,-1591,74
1657081083848,-494,-711,223
1657081083888,-406,-1138,35
1657081083928,-274,-1179,-55
1657081083968,-157,-1185,40
1657081084008,-117,-1078,267
1657081084048,-165,-906,318
1657081084088,-175,-820,204
1657081084128,-27,-883,-9
1657081084168,242,-938,-164
1657081084208,335,-922,-63
1657081084248,26,-986,192
1657081084288,-306,-1053,248
1657081084328,-349,-1123,144
1657081084368,-203,-1126,-15
1657081084408,-69,-1100,-80
1657081084448,-59,-1039,0
1657081084488,-104,-1093,109
1657081084528,-110,-1160,218
1657081084568,-184,-1095,238
1657081084608,-324,-996,127
1657081084648,-287,-1033,179
1657081084688,-329,-1261,118
1657081084728,-234,-1398,308
1657081084768,-259,-1348,332
1657081084808,-243,-1154,316
1657081084848,-128,-1001,351
1657081084888,8,-884,368
1657081084928,89,-767,371
1657081084968,119,-668,328
1657081085008,61,-656,258
1657081085048,8,-793,196
1657081085088,15,-930,188
1657081085128,-12,-1043,254
1657081085168,-81,-1244,274
1657081085208,-154,-1423,206
1657081085248,-243,-1495,118
1657081085288,-573,-1489,-311
1657081085328,-404,-1001,337
1657081085368,-343,-949,197
1657081085408,-236,-1086,107
1657081085448,-82,-1092,203
1657081085488,-24,-1004,222
1657081085528,-104,-957,217
1657081085568,-204,-940,191
1657081085608,-209,-967,120
1657081085648,-210,-979,89
1657081085688,-219,-985,92
1657081085728,-222,-1031,58
1657081085768,-192,-1105,38
1657081085808,48,-1099,125
1657081085848,311,-968,420
1657081085888,293,-930,135
1657081085928,-20,-1058,-267
1657081085968,-87,-1026,-59
1657081086008,-61,-1121,172
1657081086048,-335,-1188,199
1657081086088,-542,-1278,184
1657081086128,-655,-1410,135
1657081086168,-591,-1619,233
1657081086208,-352,-1626,372
1657081086248,-188,-1474,452
1657081086288,-99,-1306,480
1657081086328,-9,-1189,392
1657081086368,115,-993,346
1657081086408,190,-750,326
1657081086448,206,-587,273
1657081086488,164,-532,224
1657081086528,130,-559,204
1657081086568,133,-641,249
1657081086608,155,-849,337
1657081086648,120,-1244,378
1657081086688,-26,-1682,403
1657081086728,-262,-1966,280
1657081086768,-379,-1919,22
1657081086808,-201,-2046,-580
1657081086848,-342,-1566,-19
1657081086888,-187,-1103,63
1657081086928,-248,-833,-16
1657081086968,-225,-931,98
1657081087008,-145,-986,177
1657081087048,-129,-936,199
1657081087088,-272,-923,216
1657081087128,-386,-967,193
1657081087168,-397,-1054,157
1657081087208,-356,-1139,119
1657081087248,-271,-1218,142
1657081087288,800,-1692,-35
1657081087328,2046,-1057,1440
1657081087368,442,-1022,116
1657081087408,-364,-1499,-176
1657081087448,-514,-1261,-210
1657081087488,-238,-1166,-111
1657081087528,-130,-1272,131
1657081087568,-161,-1265,420
1657081087608,-346,-1071,420
1657081087648,-419,-1026,258
1657081087688,-344,-1172,280
1657081087728,-206,-1267,275
1657081087768,-201,-1249,289
1657081087808,-214,-1208,344
1657081087848,-158,-1179,352
1657081087888,-53,-1054,354
1657081087928,2,-867,369
1657081087968,35,-715,328
1657081088008,51,-641,297
1657081088048,71,-680,262
1657081088088,85,-772,220
1657081088128,62,-859,212
1657081088168,20,-1019,213
1657081088208,-47,-1272,215
1657081088248,-136,-1486,180
1657081088288,-249,-1487,123
1657081088328,-339,-1396,120
1657081088368,-451,-771,234
1657081088408,-430,-1225,150
1657081088448,-305,-1234,97
1657081088488,-175,-1151,137
1657081088528,-118,-1003,165
1657081088568,-131,-900,163
1657081088608,-186,-872,77
1657081088648,-215,-907,11
1657081088688,-254,-984,5
1657081088728,-283,-1031,0
1657081088768,-281,-1091,22
1657081088808,-4,-1241,90
1657081088848,550,-1098,289
1657081088888,464,-953,327
1657081088928,7,-1204,-198
1657081088968,-266,-1281,-171
1657081089008,-175,-1243,76
1657081089048,-246,-1045,155
1657081089088,-339,-933,194
1657081089128,-372,-1027,296
1657081089168,-370,-1255,398
1657081089208,-340,-1395,372
1657081089248,-380,-1399,335
1657081089288,576,-1379,669
1657081089328,-236,-1291,432
1657081089368,25,-988,469
1657081089408,151,-803,491
1657081089448,193,-657,430
1657081089488,149,-647,185
1657081089528,111,-710,50
1657081089568,90,-816,42
1657081089608,57,-938,159
1657081089648,-11,-1189,266
1657081089688,-62,-1526,225
1657081089728,-200,-1642,220
1657081089768,-410,-1415,270
1657081089808,-713,-656,352
1657081089848,-453,-1184,291
1657081089888,-225,-1294,145
1657081089928,-87,-1183,137
1657081089968,-46,-1047,118
1657081090008,-121,-920,105
1657081090048,-169,-908,95
1657081090088,-140,-940,43
1657081090128,-152,-990,38
1657081090168,-129,-998,18
1657081090208,-94,-996,4
1657081090248,-54,-1028,58
1657081090288,-57,-1099,110
1657081090328,-85,-1150,121
1657081090368,-96,-1148,136
1657081090408,-96,-1129,235
1657081090448,-122,-1121,280
1657081090488,-246,-1052,244
1657081090528,-378,-992,177
1657081090568,-403,-1117,238
1657081090608,-316,-1267,366
1657081090648,-205,-1348,372
1657081090688,-240,-1384,300
1657081090728,-255,-1267,297
1657081090768,-164,-1070,323
1657081090808,-55,-887,335
1657081090848,42,-744,328
1657081090888,125,-654,303
1657081090928,160,-634,240
1657081090968,124,-749,192
1657081091008,61,-885,156
1657081091048,25,-1004,185
1657081091088,-50,-1180,259
1657081091128,-131,-1446,258
1657081091168,-244,-1578,168
1657081091208,-326,-1448,90
1657081091248,-386,-1249,78
1657081091288,-377,-1065,86
1657081091328,-287,-1126,115
1657081091368,-187,-1164,149
1657081091408,-128,-1044,192
1657081091448,-145,-941,152
1657081091488,-216,-905,85
1657081091528,-211,-928,54
1657081091568,-169,-1005,105
1657081091608,-183,-1052,141
1657081091648,-207,-1069,120
1657081091688,-6,-1088,88
1657081091728,315,-1021,109
1657081091768,272,-959,108
1657081091808,-34,-1070,7
1657081091848,-113,-1093,-59
1657081091888,-103,-1138,124
1657081091928,-267,-1115,152
1657081091968,-484,-1096,9
1657081092008,-535,-1196,3
1657081092048,-487,-1376,257
1657081092088,-397,-1442,369
1657081092128,-310,-1422,365
1657081092168,-252,-1271,377
1657081092208,-168,-1165,399
1657081092248,-35,-1059,381
1657081092288,74,-906,325
1657081092328,137,-748,258
1657081092368,123,-645,233
1657081092408,88,-657,215
1657081092448,68,-708,189
1657081092488,68,-799,216
1657081092528,76,-1033,254
1657081092568,-1,-1337,302
1657081092608,-102,-1592,246
1657081092648,-235,-1691,128
1657081092688,-198,-1782,-481
1657081092728,-520,-1230,6
1657081092768,-403,-1143,-32
1657081092808,-292,-1229,-127
1657081092848,-187,-1248,102
1657081092888,-141,-1065,195
1657081092928,-177,-944,205
1657081092968,-239,-884,148
1657081093008,-209,-901,122
1657081093048,-135,-969,118
1657081093088,231,-1110,27
1657081093128,547,-933,-3
1657081093168,267,-837,80
1657081093208,-230,-1253,-12
1657081093248,-283,-1243,21
1657081093288,-192,-1259,22
1657081093328,-222,-1204,21
1657081093368,-328,-1200,81
1657081093408,-335,-1131,74
1657081093448,-233,-1144,167
1657081093488,-236,-1300,187
1657081093528,-260,-1338,304
1657081093568,-343,-1232,402
1657081093608,-313,-1122,488
1657081093648,-106,-1036,486
1657081093688,73,-906,413
1657081093728,150,-705,347
1657081093768,110,-605,277
1657081093808,36,-671,223
1657081093848,51,-757,189
1657081093888,68,-857,212
1657081093928,40,-1072,262
1657081093968,-74,-1259,256
1657081094008,-200,-1462,189
1657081094048,-298,-1510,142
1657081094088,-342,-1323,199
1657081094128,-464,-1004,144
1657081094168,-284,-1138,252
1657081094208,-254,-1251,53
1657081094248,-132,-1180,84
1657081094288,-116,-1013,68
1657081094328,-117,-900,35
1657081094368,-98,-885,36
1657081094408,-75,-907,67
1657081094448,-128,-941,97
1657081094488,-180,-982,41
1657081094528,-149,-1015,15
1657081094568,-98,-1087,61
1657081094608,-140,-1163,88
1657081094648,-176,-1201,79
1657081094688,-207,-1209,137
1657081094728,-278,-1122,151
1657081094768,-356,-1010,98
1657081094808,-368,-1063,157
1657081094848,-285,-1244,293
1657081094888,-213,-1348,334
1657081094928,-265,-1322,338
1657081094968,-325,-1226,351
1657081095008,-278,-1102,368
1657081095048,-139,-987,364
1657081095088,22,-879,343
1657081095128,134,-762,297
1657081095168,156,-664,233
1657081095208,62,-722,203
1657081095248,6,-798,166
1657081095288,27,-917,181
1657081095328,31,-1079,250
1657081095368,-40,-1290,290
1657081095408,-100,-1512,254
1657081095448,-235,-1468,184
1657081095488,-406,-1234,93
1657081095528,-549,-1014,-85
1657081095568,-304,-1308,245
1657081095608,-128,-1224,125
1657081095648,-126,-1039,161
1657081095688,-217,-960,169
1657081095728,-252,-917,73
1657081095768,-237,-937,18
1657081095808,-225,-974,-10
1657081095848,-194,-995,-7
1657081095888,-165,-978,6
1657081095928,-110,-952,21
1657081095968,-70,-1019,35
1657081096008,-114,-1147,15
1657081096048,-157,-1224,20
1657081096088,-169,-1269,80
1657081096128,-228,-1197,129
1657081096168,-325,-1050,49
1657081096208,-313,-1060,90
1657081096248,-343,-1284,206
1657081096288,-238,-1370,425
1657081096328,-243,-1343,501
1657081096368,-275,-1197,442
1657081096408,-232,-1063,361
1657081096448,-90,-968,333
1657081096488,58,-860,312
1657081096528,167,-722,271
1657081096568,209,-614,217
1657081096608,136,-711,160
1657081096648,85,-827,110
1657081096688,73,-961,165
1657081096728,51,-1216,257
1657081096768,-4,-1479,284
1657081096808,-168,-1574,346
1657081096848,-412,-1487,267
1657081096888,-527,-1355,34
1657081096928,-521,-1328,-122
1657081096968,-316,-1381,-68
1657081097008,-130,-1265,38
1657081097048,-72,-1024,132
1657081097088,-108,-919,187
1657081097128,-124,-863,139
1657081097168,-81,-853,89
1657081097208,-95,-898,61
1657081097248,-140,-926,33
1657081097288,-155,-947,-18
1657081097328,-139,-975,-26
1657081097368,-104,-1050,20
1657081097408,-106,-1065,21
1657081097448,-118,-1117,38
1657081097488,-163,-1204,139
1657081097528,-296,-1220,177
1657081097568,-458,-1147,109
1657081097608,-559,-1254,165
1657081097648,-418,-1432,301
1657081097688,-263,-1495,350
1657081097728,-245,-1403,409
1657081097768,-213,-1286,419
1657081097808,-66,-1186,398
1657081097848,96,-994,336
1657081097888,208,-718,266
1657081097928,205,-534,229
1657081097968,123,-537,229
1657081098008,126,-640,199
1657081098048,136,-780,199
1657081098088,122,-1028,226
1657081098128,55,-1414,256
1657081098168,-44,-1804,239
1657081098208,-265,-1791,190
1657081098248,-399,-1580,-203
1657081098288,-691,-1087,-78
1657081098328,-423,-1292,-128
1657081098368,-156,-1386,-34
1657081098408,-32,-1215,149
1657081098448,-66,-936,285
1657081098488,-164,-783,229
1657081098528,-224,-817,141
1657081098568,-142,-861,140
1657081098608,-108,-907,188
1657081098648,-218,-1005,181
1657081098688,-266,-1149,87
1657081098728,-161,-1228,-13
1657081098768,151,-1094,4
1657081098808,203,-995,30
1657081098848,81,-1003,-150
1657081098888,-10,-1021,-31
1657081098928,-31,-1021,151
1657081098968,-377,-1184,80
1657081099008,-634,-1320,-21
1657081099048,-742,-1678,195
1657081099088,-543,-1764,311
1657081099128,-227,-1690,460
1657081099168,-49,-1433,442
1657081099208,21,-1227,402
1657081099248,112,-1031,366
1657081099288,204,-720,268
1657081099328,246,-501,152
1657081099368,197,-464,105
1657081099408,162,-534,148
1657081099448,166,-653,254
1657081099488,145,-912,333
1657081099528,44,-1307,392
1657081099568,-105,-1684,423
1657081099608,-346,-1863,337
1657081099648,-426,-1892,95
1657081099688,-427,-1735,-25
1657081099728,-300,-1283,-47
1657081099768,-275,-956,-61
1657081099808,-228,-1011,-70
1657081099848,-119,-1101,33
1657081099888,-80,-1076,153
1657081099928,-163,-946,203
1657081099968,-302,-953,134
1657081100008,-277,-982,0
1657081100048,-168,-998,-52
1657081100088,-120,-1009,24
1657081100128,-118,-963,30
1657081100168,-103,-927,29
1657081100208,-50,-919,83
1657081100248,-6,-933,147
1657081100288,-20,-1016,157
1657081100328,-150,-1195,166
1657081100368,-325,-1352,167
1657081100408,-519,-1334,52
1657081100448,-614,-1343,43
1657081100488,-473,-1579,275
1657081100528,-238,-1598,362
1657081100568,-34,-1385,395
1657081100608,40,-1072,396
1657081100648,61,-884,334
1657081100688,154,-712,251
1657081100728,222,-540,218
1657081100768,239,-467,204
1657081100808,164,-608,206
1657081100848,83,-839,181
1657081100888,58,-1146,220
1657081100928,-17,-1444,293
1657081100968,-149,-1793,299
1657081101008,-327,-1921,187
1657081101048,-498,-1494,59
1657081101088,-651,-377,162
1657081101128,-420,-1054,-89
1657081101168,-127,-1242,-28
1657081101208,55,-1203,144
1657081101248,29,-992,340
1657081101288,-224,-903,275
1657081101328,-377,-897,126
1657081101368,-441,-954,11
1657081101408,-326,-1048,-83
1657081101448,-207,-1129,-93
1657081101488,-146,-1147,-38
1657081101528,-113,-1141,23
1657081101568,-108,-1069,96
1657081101608,-98,-1064,120
1657081101648,-83,-1084,156
1657081101688,-152,-1050,136
1657081101728,-270,-1099,21
1657081101768,-362,-1167,-39
1657081101808,-406,-1322,91
1657081101848,-318,-1459,333
1657081101888,-247,-1456,351
1657081101928,-173,-1268,311
1657081101968,-83,-1077,346
1657081102008,-2,-926,367
1657081102048,104,-803,330
1657081102088,178,-672,265
1657081102128,160,-604,232
1657081102168,93,-708,205
1657081102208,67,-822,179
1657081102248,34,-977,205
1657081102288,12,-1318,253
1657081102328,-73,-1576,327
1657081102368,-255,-1566,288
1657081102408,-415,-1402,117
1657081102448,-468,-1233,-137
1657081102488,-401,-1223,-245
1657081102528,-193,-1346,-64
1657081102568,-54,-1259,127
1657081102608,-63,-999,240
1657081102648,-197,-916,217
1657081102688,-211,-894,88
1657081102728,-177,-939,-4
1657081102768,-171,-1026,-3
1657081102808,-215,-1033,0
1657081102848,-230,-1000,-26
1657081102888,-163,-1021,-44
1657081102928,-75,-1017,9
1657081102968,-77,-946,75
1657081103008,-144,-1052,116
1657081103048,-233,-1211,125
1657081103088,-324,-1261,110
1657081103128,-324,-1247,49
1657081103168,-503,-1337,-1
1657081103208,-456,-1483,240
1657081103248,-273,-1494,491
1657081103288,-109,-1311,542
1657081103328,-40,-1117,524
1657081103368,2,-937,428
1657081103408,75,-768,341
1657081103448,131,-638,287
1657081103488,152,-557,252
1657081103528,134,-620,188
1657081103568,127,-769,196
1657081103608,140,-959,230
1657081103648,87,-1203,289
1657081103688,-20,-1530,291
1657081103728,-198,-1752,148
1657081103768,-380,-1538,-30
1657081103808,-177,-600,-90
1657081103848,-504,-1205,55
1657081103888,-201,-1384,160
1657081103928,-88,-1220,21
1657081103968,-69,-1032,137
1657081104008,-137,-916,137
1657081104048,-177,-876,90
1657081104088,-171,-921,66
1657081104128,-177,-938,21
1657081104168,-194,-966,-24
1657081104208,-172,-1086,-69
1657081104248,-130,-1142,-45
1657081104288,-162,-1123,29
1657081104328,-189,-1120,90
1657081104368,-210,-1174,141
1657081104408,-347,-1179,105
1657081104448,-539,-1190,35
1657081104488,-580,-1368,210
1657081104528,-341,-1506,426
1657081104568,-120,-1433,557
1657081104608,-67,-1232,563
1657081104648,-130,-1061,417
1657081104688,-152,-908,312
1657081104728,-37,-828,243
1657081104768,88,-702,148
1657081104808,132,-563,144
1657081104848,118,-563,186
1657081104888,98,-712,214
1657081104928,104,-883,263
1657081104968,51,-1146,337
1657081105008,-56,-1432,335
1657081105048,-186,-1662,218
1657081105088,-320,-1650,73
1657081105128,-417,-1390,-19
1657081105168,-435,-1165,-92
1657081105208,-352,-1169,-118
1657081105248,-191,-1307,-44
1657081105288,-103,-1205,20
1657081105328,-94,-1013,112
1657081105368,-169,-887,130
1657081105408,-228,-845,79
1657081105448,-225,-894,47
1657081105488,-230,-970,11
1657081105528,-228,-1040,-55
1657081105568,-181,-1110,-90
1657081105608,-98,-1151,-50
1657081105648,-65,-1132,36
1657081105688,-89,-1131,104
1657081105728,-128,-1120,176
1657081105768,-223,-1067,199
1657081105808,-324,-1021,101
1657081105848,-406,-1079,52
1657081105888,-350,-1280,170
1657081105928,-314,-1412,300
1657081105968,-300,-1295,420
1657081106008,-255,-1108,436
1657081106048,-129,-938,373
1657081106088,-10,-811,340
1657081106128,106,-710,326
1657081106168,146,-603,283
1657081106208,79,-656,183
1657081106248,14,-788,117
1657081106288,29,-975,109
1657081106328,17,-1144,204
1657081106368,-74,-1303,293
1657081106408,-190,-1467,233
1657081106448,-323,-1473,161
1657081106488,-404,-1253,90
1657081106528,-477,-1032,-36
1657081106568,-320,-1136,146
1657081106608,-207,-1200,43
1657081106648,-98,-1152,148
1657081106688,-96,-993,202
1657081106728,-184,-905,174
1657081106768,-253,-917,60
1657081106808,-249,-1004,-28
1657081106848,37,-1168,-164
1657081106888,409,-937,-119
1657081106928,217,-906,110
1657081106968,-187,-1170,-21
1657081107008,-274,-1162,-57
1657081107048,-136,-1096,36
1657081107088,-133,-1092,102
1657081107128,-186,-1112,240
1657081107168,-235,-1057,299
1657081107208,-260,-1001,208
1657081107248,-313,-1101,93
1657081107288,-305,-1262,159
1657081107328,-314,-1387,283
1657081107368,-344,-1342,332
1657081107408,-327,-1194,388
1657081107448,-195,-1061,348
1657081107488,-43,-910,306
1657081107528,59,-770,278
1657081107568,130,-636,248
1657081107608,135,-609,254
1657081107648,97,-716,257
1657081107688,55,-873,234
1657081107728,7,-1084,260
1657081107768,-72,-1290,254
1657081107808,-169,-1435,208
1657081107848,-294,-1435,104
1657081107888,-1059,-1682,-1135
1657081107928,-659,-904,-65
1657081107968,-176,-1225,402
1657081108008,-126,-1258,125
1657081108048,-84,-1066,141
1657081108088,-167,-949,138
1657081108128,-234,-890,46
1657081108168,-200,-910,48
1657081108208,-178,-933,49
1657081108248,-211,-945,22
1657081108288,-245,-1000,-16
1657081108328,-220,-1147,-20
1657081108368,-179,-1242,53
1657081108408,-250,-1194,127
1657081108448,-307,-1173,141
1657081108488,-309,-1165,126
1657081108528,-390,-1149,78
1657081108568,-415,-1173,137
1657081108608,-288,-1315,334
1657081108648,-146,-1331,489
1657081108688,-93,-1200,533
1657081108728,-117,-1101,419
1657081108768,-137,-1052,312
1657081108808,-68,-938,264
1657081108848,14,-817,249
1657081108888,48,-717,215
1657081108928,81,-688,181
1657081108968,114,-719,183
1657081109008,121,-798,204
1657081109048,87,-937,230
1657081109088,18,-1160,251
1657081109128,-85,-1403,264
1657081109168,-208,-1664,192
1657081109208,-365,-1748,101
1657081109248,-527,-1434,26
1657081109288,-564,-1051,6
1657081109328,-433,-963,40
1657081109368,-222,-1096,126
1657081109408,-79,-1081,227
1657081109448,-60,-933,287
1657081109488,-183,-880,246
1657081109528,-273,-914,171
1657081109568,-304,-986,193
1657081109608,-302,-1071,205
1657081109648,-39,-1249,34
1657081109688,952,-1199,-149
1657081109728,651,-693,313
1657081109768,-220,-1319,-4
1657081109808,-433,-1234,-168
1657081109848,-283,-1103,-28
1657081109888,-90,-1095,108
1657081109928,-127,-1086,237
1657081109968,-287,-1080,307
1657081110008,-402,-1065,184
1657081110048,-420,-1159,164
1657081110088,-363,-1277,292
1657081110128,-312,-1297,372
1657081110168,-228,-1234,383
1657081110208,-146,-1098,333
1657081110248,-77,-953,288
1657081110288,-10,-820,252
1657081110328,37,-704,263
1657081110368,50,-641,265
1657081110408,59,-716,227
1657081110448,61,-852,188
1657081110488,37,-988,198
1657081110528,-10,-1201,223
1657081110568,-4,-1326,212
1657081110608,-104,-1298,260
1657081110648,-269,-1244,261
1657081110688,91,-1512,-313
1657081110728,-415,-1206,129
1657081110768,-251,-1312,61
1657081110808,-114,-1136,-32
1657081110848,-83,-992,169
1657081110888,-99,-866,238
1657081110928,-149,-853,169
1657081110968,-203,-912,72
1657081111008,-215,-973,14
1657081111048,-195,-1035,-8
1657081111088,-189,-1081,-33
1657081111128,-193,-1095,9
1657081111168,-207,-1095,82
1657081111208,-212,-1042,99
1657081111248,-196,-1028,137
1657081111288,-174,-1052,178
1657081111328,-216,-1046,150
1657081111368,-277,-1110,56
1657081111408,-294,-1264,61
1657081111448,-301,-1403,183
1657081111488,-358,-1514,239
1657081111528,-393,-1440,265
1657081111568,-299,-1356,358
1657081111608,-95,-1219,367
1657081111648,88,-1003,346
1657081111688,187,-756,255
1657081111728,234,-590,192
1657081111768,202,-557,172
1657081111808,160,-606,188
1657081111848,114,-742,192
1657081111888,89,-977,222
1657081111928,28,-1357,304
1657081111968,-69,-1699,362
1657081112008,-287,-1867,345
1657081112048,-454,-1632,123
1657081112088,-512,-1314,-147
1657081112128,-448,-1266,-296
1657081112168,-206,-1367,-158
1657081112208,10,-1285,71
1657081112248,14,-980,232
1657081112288,-190,-862,219
1657081112328,-291,-849,109
1657081112368,-244,-889,28
1657081112408,-166,-922,4
1657081112448,-201,-947,18
1657081112488,-234,-956,-18
1657081112528,-205,-977,5
1657081112568,-137,-952,92
1657081112608,-68,-976,141
1657081112648,-83,-1099,222
1657081112688,-255,-1265,255
1657081112728,-456,-1252,148
1657081112768,-583,-1237,89
1657081112808,-506,-1485,172
1657081112848,-346,-1694,254
1657081112888,-182,-1670,407
1657081112928,-59,-1500,445
1657081112968,-3,-1187,363
1657081113008,88,-909,257
1657081113048,189,-657,170
1657081113088,237,-453,144
1657081113128,200,-419,170
1657081113168,133,-591,166
1657081113208,151,-829,169
1657081113248,119,-1111,219
1657081113288,55,-1484,255
1657081113328,-70,-1755,313
1657081113368,-306,-1703,362
1657081113408,-499,-1538,225
1657081113448,-569,-1360,6
1657081113488,-457,-1392,-77
1657081113528,-278,-1343,-9
1657081113568,-178,-1164,84
1657081113608,-153,-1002,143
1657081113648,-145,-904,84
1657081113688,-118,-894,37
1657081113728,-76,-862,40
1657081113768,-81,-862,42
1657081113808,-145,-881,57
1657081113848,-171,-930,28
1657081113888,-153,-978,50
1657081113928,-106,-1017,93
1657081113968,-105,-1124,159
1657081114008,-205,-1197,200
1657081114048,-357,-1220,161
1657081114088,-497,-1144,97
1657081114128,-518,-1183,82
1657081114168,-287,-1341,181
1657081114208,270,-1798,458
1657081114248,-63,-1466,193
1657081114288,-168,-1309,156
1657081114328,-232,-1125,359
1657081114368,-85,-928,242
1657081114408,-41,-763,250
1657081114448,41,-647,244
1657081114488,98,-590,202
1657081114528,118,-632,175
1657081114568,116,-792,159
1657081114608,94,-1020,177
1657081114648,11,-1294,245
1657081114688,-117,-1561,293
1657081114728,-277,-1685,252
1657081114768,-437,-1462,140
1657081114808,-525,-1149,-44
1657081114848,-468,-1081,-139
1657081114888,-239,-1225,-21
1657081114928,-68,-1189,147
1657081114968,-17,-967,290
1657081115008,-125,-809,315
1657081115048,-248,-798,211
1657081115088,-269,-911,155
1657081115128,-276,-1049,141
1657081115168,-290,-1127,130
1657081115208,-195,-1141,21
1657081115248,466,-1104,-272
1657081115288,483,-875,-69
1657081115328,127,-949,81
1657081115368,-172,-1059,150
1657081115408,-84,-1006,133
1657081115448,-157,-1061,101
1657081115488,-293,-1111,41
1657081115528,-427,-1202,-43
1657081115568,-517,-1341,-44
1657081115608,-481,-1497,130
1657081115648,-393,-1523,259
1657081115688,-331,-1476,316
1657081115728,-203,-1413,374
1657081115768,-10,-1299,409
1657081115808,143,-1062,375
1657081115848,203,-764,292
1657081115888,163,-588,233
1657081115928,109,-559,185
1657081115968,140,-657,125
1657081116008,131,-850,107
1657081116048,108,-1125,155
1657081116088,12,-1445,231
1657081116128,-137,-1525,216
1657081116168,-323,-1410,120
1657081116208,-452,-1235,-54
1657081116248,-426,-1268,-130
1657081116288,-173,-1337,12
1657081116328,-69,-1165,123
1657081116368,-156,-999,142
1657081116408,-248,-945,72
1657081116448,-220,-894,-15
1657081116488,-169,-878,-29
1657081116528,-170,-859,-4
1657081116568,-199,-875,-6
1657081116608,-171,-975,5
1657081116648,-155,-1097,87
1657081116688,-206,-1186,102
1657081116728,-291,-1304,97
1657081116768,-373,-1327,117
1657081116808,-440,-1273,82
1657081116848,-422,-1172,27
1657081116888,-276,-1227,86
1657081116928,-129,-1309,266
1657081116968,58,-674,654
1657081117008,-120,-1155,288
1657081117048,-218,-1206,218
1657081117088,-237,-1126,284
1657081117128,-87,-942,229
1657081117168,-17,-784,306
1657081117208,54,-674,294
1657081117248,82,-632,273
1657081117288,122,-694,239
1657081117328,122,-833,212
1657081117368,97,-1027,202
1657081117408,9,-1275,237
1657081117448,-104,-1497,289
1657081117488,-287,-1475,266
1657081117528,-475,-1222,175
1657081117568,-540,-1237,3
1657081117608,-367,-1372,-35
1657081117648,-164,-1308,57
1657081117688,-102,-1081,127
1657081117728,-150,-896,149
1657081117768,-230,-885,102
1657081117808,-198,-941,16
1657081117848,-191,-1003,0
1657081117888,-231,-1024,-35
1657081117928,-254,-1057,-54
1657081117968,-169,-1093,9
1657081118008,-123,-1062,70
1657081118048,-151,-994,85
1657081118088,-195,-1001,121
1657081118128,-262,-1092,156
1657081118168,-329,-1205,175
1657081118208,-422,-1269,199
1657081118248,-457,-1304,220
1657081118288,-324,-1370,337
1657081118328,-160,-1373,400
1657081118368,-77,-1300,392
1657081118408,-50,-1166,348
1657081118448,-34,-969,267
1657081118488,-17,-810,208
1657081118528,16,-709,179
1657081118568,76,-649,176
1657081118608,127,-644,189
1657081118648,142,-714,211
1657081118688,122,-868,218
1657081118728,77,-1112,262
1657081118768,-6,-1385,328
1657081118808,-135,-1656,332
1657081118848,-306,-1805,214
1657081118888,-449,-1586,63
1657081118928,-534,-1257,-68
1657081118968,-449,-1070,-118
1657081119008,-278,-1146,-16
1657081119048,-154,-1155,95
1657081119088,-105,-985,178
1657081119128,-147,-857,183
1657081119168,-263,-861,102
1657081119208,-288,-925,53
1657081119248,-262,-1054,37
1657081119288,-161,-1149,11
1657081119328,12,-1089,-58
1657081119368,133,-1104,-111
1657081119408,140,-1052,-3
1657081119448,-3,-1026,124
1657081119488,-62,-935,167
1657081119528,-117,-906,276
1657081119568,-275,-1037,278
1657081119608,-624,-1287,103
1657081119648,-870,-1475,156
1657081119688,-661,-1658,351
1657081119728,-248,-1746,347
1657081119768,13,-1555,293
1657081119808,101,-1275,286
1657081119848,111,-1036,287
1657081119888,181,-746,233
1657081119928,233,-523,193
1657081119968,199,-491,193
1657081120008,126,-652,158
1657081120048,121,-880,136
1657081120088,84,-1088,180
1657081120128,-6,-1400,251
1657081120168,-114,-1638,313
1657081120208,-302,-1511,355
1657081120248,-483,-1289,261
1657081120288,-511,-1246,59
1657081120328,-337,-1382,43
1657081120368,-149,-1276,95
1657081120408,-120,-1058,84
1657081120448,-191,-950,101
1657081120488,-223,-892,66
1657081120528,-179,-893,28
1657081120568,-195,-910,49
1657081120608,-245,-915,26
1657081120648,-266,-949,-6
1657081120688,-193,-1039,-9
1657081120728,-141,-1073,14
1657081120768,-137,-1080,69
1657081120808,-153,-1114,173
1657081120848,-264,-1118,196
1657081120888,-418,-1086,85
1657081120928,-495,-1210,65
1657081120968,-409,-1472,199
1657081121008,-240,-1557,315
1657081121048,-125,-1559,390
1657081121088,-81,-1362,369
1657081121128,-66,-1135,332
1657081121168,-11,-1000,332
1657081121208,69,-860,330
1657081121248,119,-706,270
1657081121288,124,-631,212
1657081121328,106,-672,168
1657081121368,91,-760,147
1657081121408,76,-897,188
1657081121448,38,-1120,231
1657081121488,-49,-1360,272
1657081121528,-148,-1638,291
1657081121568,-310,-1702,252
1657081121608,-455,-1365,160
1657081121648,-531,-1107,-14
1657081121688,-410,-1172,-65
1657081121728,-179,-1260,47
1657081121768,-61,-1148,131
1657081121808,-65,-923,235
1657081121848,-201,-809,231
1657081121888,-311,-872,105
1657081121928,-328,-970,-2
1657081121968,-284,-1041,-66
1657081122008,-200,-1045,-112
1657081122048,-127,-1067,-78
1657081122088,-110,-1058,25
1657081122128,-119,-1027,86
1657081122168,-111,-1063,124
1657081122208,-79,-1146,173
1657081122248,-159,-1127,179
1657081122288,-301,-1037,36
1657081122328,-414,-1058,-55
1657081122368,-70,-1238,324
1657081122408,-161,-1480,80
1657081122448,-180,-1469,156
1657081122488,-164,-1312,433
1657081122528,-154,-1137,240
1657081122568,-119,-997,264
1657081122608,-5,-830,333
1657081122648,65,-692,315
1657081122688,96,-601,228
1657081122728,81,-661,163
1657081122768,93,-811,139
1657081122808,107,-956,151
1657081122848,74,-1232,242
1657081122888,-22,-1498,351
1657081122928,-219,-1460,340
1657081122968,-427,-1321,185
1657081123008,-558,-1242,-38
1657081123048,-448,-1376,-87
1657081123088,-179,-1394,40
1657081123128,70,-1162,104
1657081123168,169,-882,153
1657081123208,86,-789,160
1657081123248,-57,-823,167
1657081123288,-74,-898,133
1657081123328,-93,-965,84
1657081123368,-147,-1019,43
1657081123408,-212,-1051,27
1657081123448,-255,-1109,5
1657081123488,-308,-1150,-29
1657081123528,-281,-1255,40
1657081123568,-218,-1310,168
1657081123608,-248,-1158,179
1657081123648,-353,-1009,81
1657081123688,-347,-1129,148
1657081123728,-247,-1361,304
1657081123768,-172,-1518,384
1657081123808,-189,-1537,412
1657081123848,-221,-1388,389
1657081123888,-155,-1210,365
1657081123928,-20,-1035,369
1657081123968,93,-858,357
1657081124008,191,-665,283
1657081124048,210,-537,212
1657081124088,176,-603,161
1657081124128,161,-755,159
1657081124168,143,-960,178
1657081124208,98,-1273,242
1657081124248,-10,-1641,327
1657081124288,-224,-1719,293
1657081124328,-479,-1464,161
1657081124368,-622,-1311,-22
1657081124408,-456,-1397,-44
1657081124448,-204,-1389,25
1657081124488,-93,-1204,62
1657081124528,-114,-982,144
1657081124568,-205,-885,114
1657081124608,-239,-903,-6
1657081124648,-224,-960,-63
1657081124688,-220,-936,-70
1657081124728,-208,-937,-33
1657081124768,-129,-1025,18
1657081124808,-84,-1090,95
1657081124848,-92,-1184,127
1657081124888,-187,-1245,153
1657081124928,-341,-1201,96
1657081124968,-491,-1120,4
1657081125008,-544,-1237,104
1657081125048,-341,-1446,290
1657081125088,-118,-1493,362
1657081125128,-20,-1355,463
1657081125168,-31,-1243,463
1657081125208,-39,-1083,382
1657081125248,-18,-892,338
1657081125288,16,-747,340
1657081125328,50,-651,320
1657081125368,84,-622,271
1657081125408,102,-672,179
1657081125448,126,-829,145
1657081125488,130,-1010,154
1657081125528,86,-1291,243
1657081125568,-16,-1606,311
1657081125608,-221,-1553,262
1657081125648,-454,-1315,144
1657081125688,-857,-864,105
1657081125728,-475,-1360,101
1657081125768,-187,-1423,38
1657081125808,-46,-1201,135
1657081125848,-82,-943,222
1657081125888,-179,-833,187
1657081125928,-200,-833,105
1657081125968,-194,-898,74
1657081126008,-193,-1008,74
1657081126048,-172,-1096,-11
1657081126088,-101,-1117,-82
1657081126128,-6,-1149,-25
1657081126168,38,-1091,73
1657081126208,2,-1054,176
1657081126248,-102,-997,220
1657081126288,-156,-1014,135
1657081126328,-255,-1033,22
1657081126368,-372,-1114,-55
1657081126408,-474,-1330,54
1657081126448,-437,-1455,364
1657081126488,-338,-1416,497
1657081126528,-220,-1314,455
1657081126568,-134,-1103,399
1657081126608,-65,-937,337
1657081126648,5,-826,263
1657081126688,58,-722,190
1657081126728,69,-684,163
1657081126768,73,-703,165
1657081126808,80,-789,208
1657081126848,65,-935,263
1657081126888,11,-1173,310
1657081126928,-48,-1412,331
1657081126968,-134,-1469,325
1657081127008,-292,-1313,257
1657081127048,-416,-1158,94
1657081127088,-407,-1214,-53
1657081127128,-241,-1297,-18
1657081127168,-138,-1210,97
1657081127208,-126,-1068,168
1657081127248,-175,-951,145
1657081127288,-154,-930,62
1657081127328,-77,-949,13
1657081127368,-35,-986,0
1657081127408,-55,-978,-3
1657081127448,-77,-927,-4
1657081127488,-86,-975,10
1657081127528,-112,-1047,60
1657081127568,-129,-1128,105
1657081127608,-143,-1256,169
1657081127648,-261,-1265,94
1657081127688,-442,-1202,-76
1657081127728,-600,-1229,-54
1657081127768,-442,-1499,260
1657081127808,-206,-1570,455
1657081127848,-56,-1453,456
1657081127888,-44,-1205,423
1657081127928,-39,-1012,360
1657081127968,16,-865,339
1657081128008,90,-738,315
1657081128048,128,-655,277
1657081128088,112,-608,215
1657081128128,70,-670,163
1657081128168,92,-840,158
1657081128208,103,-1055,215
1657081128248,60,-1427,286
1657081128288,-42,-1680,344
1657081128328,-277,-1510,344
1657081128368,-482,-1399,150
1657081128408,-552,-1381,-136
1657081128448,-389,-1428,-272
1657081128488,-163,-1368,-157
1657081128528,-34,-1108,35
1657081128568,-55,-879,164
1657081128608,-154,-862,171
1657081128648,-150,-839,59
1657081128688,-140,-844,-10
1657081128728,-166,-941,-24
1657081128768,-140,-1091,71
1657081128808,-128,-1133,188
1657081128848,-182,-1085,180
1657081128888,-233,-1063,137
1657081128928,-228,-1077,146
1657081128968,-250,-1049,111
1657081129008,-326,-1172,13
1657081129048,-412,-1301,2
1657081129088,-474,-1436,105
1657081129128,-400,-1572,298
1657081129168,-276,-1564,429
1657081129208,-105,-1383,467
1657081129248,11,-1125,443
1657081129288,84,-898,375
1657081129328,120,-726,289
1657081129368,174,-623,208
1657081129408,222,-629,165
1657081129448,220,-710,192
1657081129488,140,-884,289
1657081129528,62,-1135,349
1657081129568,2,-1429,365
1657081129608,-131,-1451,353
1657081129648,-326,-1337,255
1657081129688,95,-1852,-985
1657081129728,-573,-1310,54
1657081129768,-222,-1445,316
1657081129808,-75,-1254,-164
1657081129848,-185,-1032,-78
1657081129888,-185,-923,52
1657081129928,-204,-908,34
1657081129968,-223,-967,68
1657081130008,-297,-1059,2
1657081130048,-291,-1160,-21
1657081130088,-153,-1242,-3
1657081130128,-38,-1150,49
1657081130168,-26,-1037,57
1657081130208,-17,-1087,35
1657081130248,-62,-1014,51
1657081130288,91,-930,164
1657081130328,88,-1061,162
1657081130368,-297,-1219,-83
1657081130408,-546,-1682,166
1657081130448,-801,-1695,321
1657081130488,-541,-1650,496
1657081130528,-101,-1493,518
1657081130568,145,-1152,415
1657081130608,243,-843,308
1657081130648,255,-631,235
1657081130688,245,-600,218
1657081130728,245,-632,200
1657081130768,177,-780,230
1657081130808,101,-1069,274
1657081130848,8,-1334,253
1657081130888,-151,-1329,216
1657081130928,-349,-1294,111
1657081130968,-413,-1344,-18
1657081131008,-332,-1151,167
1657081131048,-122,-1424,581
1657081131088,-176,-1155,84
1657081131128,-248,-1005,-55
1657081131168,-203,-998,50
1657081131208,-160,-939,30
1657081131248,-237,-952,4
1657081131288,-286,-1009,-61
1657081131328,-287,-1161,-93
1657081131368,-260,-1198,-40
1657081131408,-292,-1161,21
1657081131448,-324,-1191,49
1657081131488,-272,-1221,89
1657081131528,-289,-1189,9
1657081131568,-344,-1186,-15
1657081131608,-288,-1362,116
1657081131648,-225,-1497,360
1657081131688,-197,-1522,438
1657081131728,-201,-1475,406
1657081131768,-112,-1313,365
1657081131808,-25,-1103,359
1657081131848,54,-883,313
1657081131888,133,-698,265
1657081131928,152,-565,181
1657081131968,149,-581,150
1657081132008,161,-687,148
1657081132048,147,-867,182
1657081132088,123,-1199,269
1657081132128,29,-1539,365
1657081132168,-158,-1587,371
1657081132208,-444,-1506,198
1657081132248,-596,-1433,-184
1657081132288,-558,-1487,-140
1657081132328,-261,-1436,52
1657081132368,-83,-1177,172
1657081132408,-78,-957,211
1657081132448,-147,-875,140
1657081132488,-147,-879,56
1657081132528,-159,-883,-10
1657081132568,-159,-947,-90
1657081132608,-177,-1082,-134
1657081132648,-178,-1210,-110
1657081132688,-193,-1222,20
1657081132728,-224,-1237,115
1657081132768,-262,-1216,189
1657081132808,-355,-1146,193
1657081132848,-478,-1157,169
1657081132888,-431,-1344,365
1657081132928,-218,-1412,519
1657081132968,-121,-1352,499
1657081133008,-168,-1208,379
1657081133048,-159,-1103,281
1657081133088,-47,-988,235
1657081133128,75,-831,236
1657081133168,141,-659,242
1657081133208,205,-574,232
1657081133248,220,-626,256
1657081133288,183,-798,347
1657081133328,132,-1057,520
1657081133368,72,-1559,458
1657081133408,-50,-1803,275
1657081133448,-278,-1660,52
1657081133488,-487,-1384,-243
1657081133528,-624,-1338,-218
1657081133568,-296,-1461,-12
1657081133608,-19,-1283,97
1657081133648,1,-1007,108
1657081133688,-136,-895,114
1657081133728,-206,-876,23
1657081133768,-193,-890,-85
1657081133808,-185,-904,-138
1657081133848,-195,-979,-136
1657081133888,-171,-1041,-91
1657081133928,-147,-1107,-3
1657081133968,-143,-1160,94
1657081134008,-172,-1340,237
1657081134048,-244,-1408,120
1657081134088,-311,-1347,-109
1657081134128,-411,-1344,-219
1657081134168,-390,-1589,92
1657081134208,-117,-1666,440
1657081134248,27,-1279,518
1657081134288,-40,-1030,556
1657081134328,-20,-918,439
1657081134368,69,-790,360
1657081134408,110,-657,317
1657081134448,120,-592,243
1657081134488,135,-626,141
1657081134528,135,-773,155
1657081134568,118,-1021,261
1657081134608,71,-1342,386
1657081134648,-14,-1607,433
1657081134688,-186,-1639,321
1657081134728,-350,-1510,114
1657081134768,-495,-1475,-132
1657081134808,-508,-1477,-233
1657081134848,-304,-1416,-163
1657081134888,-118,-1280,-44
1657081134928,-12,-1041,73
1657081134968,-37,-848,148
1657081135008,-166,-841,168
1657081135048,-220,-888,81
1657081135088,-201,-925,-58
1657081135128,-145,-1002,-138
1657081135168,-51,-1043,-141
1657081135208,-29,-996,3
1657081135248,-53,-1002,160
1657081135288,-62,-1104,235
1657081135328,-195,-1144,201
1657081135368,-372,-1185,21
1657081135408,-549,-1318,-76
1657081135448,-577,-1612,121
1657081135488,-358,-1808,315
1657081135528,-159,-1737,381
1657081135568,-13,-1466,394
1657081135608,67,-1186,402
1657081135648,114,-939,392
1657081135688,208,-704,308
1657081135728,350,-526,210
1657081135768,432,-416,165
1657081135808,272,-596,199
1657081135848,114,-955,282
1657081135888,50,-1274,345
1657081135928,27,-1844,338
1657081135968,-174,-1895,324
1657081136008,-505,-1527,268
1657081136048,-661,-1316,-21
1657081136088,-475,-1432,-195
1657081136128,-131,-1423,-157
1657081136168,75,-1184,-68
1657081136208,55,-916,91
1657081136248,-91,-838,200
1657081136288,-171,-825,164
1657081136328,-201,-844,80
1657081136368,-232,-890,43
1657081136408,-237,-1058,57
1657081136448,-206,-1129,64
1657081136488,-238,-1096,138
1657081136528,-254,-1109,156
1657081136568,-214,-1207,216
1657081136608,-302,-1182,172
1657081136648,-412,-1154,40
1657081136688,-462,-1337,149
1657081136728,-336,-1568,370
1657081136768,-165,-1577,555
1657081136808,-65,-1432,585
1657081136848,-32,-1273,453
1657081136888,-39,-1114,306
1657081136928,-17,-987,249
1657081136968,51,-849,240
1657081137008,119,-755,224
1657081137048,196,-668,184
1657081137088,244,-637,202
1657081137128,251,-736,228
1657081137168,142,-1083,249
1657081137208,39,-1425,247
1657081137248,-143,-1470,209
1657081137288,-360,-1330,147
1657081137328,-500,-1381,65
1657081137368,-413,-1510,154
1657081137408,-164,-1394,281
1657081137448,-88,-1186,108
1657081137488,-88,-998,68
1657081137528,-165,-936,98
1657081137568,-198,-933,51
1657081137608,-234,-948,8
1657081137648,-280,-1005,-2
1657081137688,-279,-1113,-4
1657081137728,-232,-1135,13
1657081137768,-230,-1125,76
1657081137808,-277,-1277,132
1657081137848,-262,-1277,19
1657081137888,-318,-1119,-83
1657081137928,-382,-1126,-70
1657081137968,-288,-1406,149
1657081138008,-168,-1563,342
1657081138048,-135,-1511,440
1657081138088,-224,-1448,473
1657081138128,-186,-1344,549
1657081138168,-27,-1177,483
1657081138208,107,-949,406
1657081138248,158,-790,321
1657081138288,154,-675,215
1657081138328,155,-673,116
1657081138368,174,-736,80
1657081138408,170,-830,101
1657081138448,171,-1071,154
1657081138488,95,-1294,253
1657081138528,-95,-1286,318
1657081138568,-307,-1348,285
1657081138608,-452,-1521,216
1657081138648,-459,-1549,182
1657081138688,-371,-1419,87
1657081138728,-277,-1237,24
1657081138768,-189,-1099,70
1657081138808,-153,-961,66
1657081138848,-154,-903,45
1657081138888,-192,-889,-34
1657081138928,-193,-918,-99
1657081138968,-179,-1074,-100
1657081139008,-147,-1155,-8
1657081139048,-218,-1138,109
1657081139088,-294,-1196,147
1657081139128,-329,-1250,154
1657081139168,-418,-1176,40
1657081139208,-513,-1179,-4
1657081139248,-396,-1399,176
1657081139288,-201,-1491,344
1657081139328,-52,-1446,429
1657081139368,-23,-1282,483
1657081139408,-71,-1160,418
1657081139448,-65,-1015,307
1657081139488,-31,-884,233
1657081139528,-3,-810,210
1657081139568,48,-742,201
1657081139608,146,-770,167
1657081139648,198,-831,154
1657081139688,176,-940,176
1657081139728,80,-1196,244
1657081139768,-30,-1244,343
1657081139808,-227,-1078,375
1657081139848,-318,-1162,252
1657081139888,-289,-1366,83
1657081139928,-227,-1445,-17
1657081139968,-194,-1358,-8
1657081140008,-221,-1193,-7
1657081140048,-227,-1031,5
1657081140088,-197,-953,4
1657081140128,-158,-942,-14
1657081140168,-145,-929,-56
1657081140208,-182,-928,-88
1657081140248,-195,-1051,-62
1657081140288,-203,-1144,-22
1657081140328,-256,-1156,11
1657081140368,-289,-1239,67
1657081140408,-251,-1309,97
1657081140448,-276,-1226,9
1657081140488,-323,-1192,-9
1657081140528,-248,-1379,184
1657081140568,-242,-1480,307
1657081140608,-182,-1439,449
1657081140648,-190,-1298,569
1657081140688,-123,-1132,447
1657081140728,-15,-971,331
1657081140768,36,-815,328
1657081140808,90,-687,288
1657081140848,176,-643,201
1657081140888,243,-675,161
1657081140928,184,-819,194
1657081140968,69,-1124,255
1657081141008,-1,-1347,301
1657081141048,-122,-1351,286
1657081141088,-283,-1306,215
1657081141128,-393,-1325,107
1657081141168,-367,-1444,63
1657081141208,-264,-1442,115
1657081141248,-254,-1269,57
1657081141288,-265,-1121,48
1657081141328,-214,-1008,20
1657081141368,-162,-936,-6
1657081141408,-158,-911,-22
1657081141448,-199,-925,-41
1657081141488,-238,-939,-38
1657081141528,-239,-1027,184
1657081141568,-304,-1233,362
1657081141608,-133,-1265,104
1657081141648,-30,-1259,-58
1657081141688,-64,-1147,-90
1657081141728,-143,-995,-83
1657081141768,-165,-1026,-65
1657081141808,-140,-1161,54
1657081141848,-202,-1357,247
1657081141888,-358,-1462,416
1657081141928,-465,-1409,478
1657081141968,-311,-1347,477
1657081142008,-80,-1242,404
1657081142048,117,-1026,354
1657081142088,231,-738,275
1657081142128,291,-554,152
1657081142168,288,-575,71
1657081142208,227,-746,110
1657081142248,136,-978,228
1657081142288,89,-1334,319
1657081142328,-50,-1531,362
1657081142368,-327,-1519,341
1657081142408,-530,-1458,148
1657081142448,-500,-1396,1
1657081142488,-223,-1360,34
1657081142528,-78,-1149,38
1657081142568,-126,-939,93
1657081142608,-209,-890,150
1657081142648,-189,-884,89
1657081142688,-208,-891,7
1657081142728,-288,-928,-27
1657081142768,-342,-1052,-26
1657081142808,-329,-1373,16
1657081142848,-273,-1398,64
1657081142888,-202,-1379,156
1657081142928,-159,-1198,244
1657081142968,-193,-865,202
1657081143008,-253,-776,174
1657081143048,-194,-979,274
1657081143088,-158,-1216,405
1657081143128,-200,-1138,592
1657081143168,-292,-1336,342
1657081143208,-318,-1330,238
1657081143248,-217,-1192,315
1657081143288,-81,-1061,349
1657081143328,119,-871,351
1657081143368,185,-714,297
1657081143408,168,-747,221
1657081143448,173,-853,148
1657081143488,146,-943,173
1657081143528,95,-1143,229
1657081143568,45,-1209,266
1657081143608,-113,-1081,321
1657081143648,-259,-1052,262
1657081143688,-272,-1159,178
1657081143728,10,-792,149
1657081143768,-198,-1346,426
1657081143808,-261,-1197,183
1657081143848,-329,-1095,135
1657081143888,-265,-1035,49
1657081143928,-167,-1005,35
1657081143968,-143,-970,85
1657081144008,-197,-954,41
1657081144048,-240,-959,-6
1657081144088,-238,-1041,-19
1657081144128,-205,-1092,-6
1657081144168,-203,-1123,19
1657081144208,-216,-1158,82
1657081144248,-244,-1151,92
1657081144288,-327,-1125,60
1657081144328,-346,-1226,129
1657081144368,-326,-1232,305
1657081144408,-291,-1342,421
1657081144448,-199,-1320,439
1657081144488,-110,-1245,343
1657081144528,-64,-1149,280
1657081144568,-38,-1056,314
1657081144608,-6,-966,299
1657081144648,53,-865,268
1657081144688,93,-810,239
1657081144728,134,-827,250
1657081144768,152,-879,272
1657081144808,89,-982,223
1657081144848,44,-1094,195
1657081144888,-39,-1148,269
1657081144928,-138,-1096,300
1657081144968,-222,-1144,314
1657081145008,-255,-1283,355
1657081145048,-254,-1338,305
1657081145088,-232,-1267,212
1657081145128,-229,-1139,131
1657081145168,-223,-1057,78
1657081145208,-224,-1054,63
1657081145248,-194,-1017,10
1657081145288,-225,-996,-18
1657081145328,-281,-1003,-42
1657081145368,-303,-1094,-37
1657081145408,-281,-1152,-26
1657081145448,-273,-1147,9
1657081145488,-223,-1163,109
1657081145528,-225,-1249,161
1657081145568,-320,-1269,107
1657081145608,-367,-1315,132
1657081145648,-311,-1434,332
1657081145688,-281,-1479,489
1657081145728,-245,-1221,645
1657081145768,-262,-1260,459
1657081145808,-60,-1158,336
1657081145848,-12,-1046,266
1657081145888,59,-857,218
1657081145928,109,-689,223
1657081145968,157,-605,201
1657081146008,191,-655,201
1657081146048,180,-789,232
1657081146088,129,-970,290
1657081146128,84,-1259,316
1657081146168,-11,-1462,345
1657081146208,-212,-1450,382
1657081146248,-427,-1466,315
1657081146288,-544,-1449,114
1657081146328,-514,-1482,26
1657081146368,-312,-1401,-9
1657081146408,-161,-1194,33
1657081146448,-102,-984,70
1657081146488,-106,-882,74
1657081146528,-98,-872,23
1657081146568,-112,-902,-38
1657081146608,-138,-913,-90
1657081146648,-158,-994,-56
1657081146688,-157,-1142,57
1657081146728,-186,-1195,130
1657081146768,-222,-1257,79
1657081146808,-236,-1257,97
1657081146848,-297,-1159,76
1657081146888,-351,-1145,41
1657081146928,-322,-1249,139
1657081146968,-261,-1351,319
1657081147008,-161,-1364,486
1657081147048,-89,-1290,526
1657081147088,-71,-1169,379
1657081147128,-83,-995,293
1657081147168,-55,-858,294
1657081147208,40,-768,269
1657081147248,146,-658,220
1657081147288,219,-632,199
1657081147328,163,-835,206
1657081147368,57,-1057,207
1657081147408,8,-1316,202
1657081147448,-50,-1451,196
1657081147488,-187,-1345,183
1657081147528,-362,-1193,154
1657081147568,-465,-1229,-17
1657081147608,-288,-1362,34
1657081147648,-139,-1258,79
1657081147688,-117,-1057,124
1657081147728,-139,-929,144
1657081147768,-121,-892,138
1657081147808,-101,-911,96
1657081147848,-152,-958,75
1657081147888,-221,-1012,-22
1657081147928,-264,-1043,-79
1657081147968,-215,-1058,-21
1657081148008,-137,-1113,40
1657081148048,-144,-1107,133
1657081148088,-177,-1110,165
1657081148128,-180,-1115,143
1657081148168,-225,-1070,49
1657081148208,-305,-1087,-62
1657081148248,-360,-1290,1
1657081148288,-340,-1555,209
1657081148328,-291,-1572,314
1657081148368,-242,-1416,357
1657081148408,-104,-1309,373
1657081148448,49,-1154,352
1657081148488,141,-906,318
1657081148528,163,-690,305
1657081148568,148,-619,206
1657081148608,173,-670,140
1657081148648,179,-756,166
1657081148688,144,-951,196
1657081148728,126,-1259,266
1657081148768,-15,-1416,325
1657081148808,-251,-1345,291
1657081148848,-458,-1379,178
1657081148888,-532,-1473,40
1657081148928,-441,-1459,51
1657081148968,-282,-1305,75
1657081149008,-173,-1099,77
1657081149048,-105,-989,70
1657081149088,-96,-904,40
1657081149128,-79,-879,9
1657081149168,-111,-890,4
1657081149208,-178,-886,-18
1657081149248,-203,-1041,-6
1657081149288,-173,-1163,28
1657081149328,-185,-1158,57
1657081149368,-223,-1145,50
1657081149408,-227,-1113,41
1657081149448,-265,-1096,8
1657081149488,-320,-1226,-3
1657081149528,-368,-1374,133
1657081149568,-387,-1430,356
1657081149608,-307,-1410,481
1657081149648,-177,-1305,454
1657081149688,-68,-1125,372
1657081149728,-20,-979,330
1657081149768,22,-860,271
1657081149808,71,-752,192
1657081149848,121,-715,191
1657081149888,179,-705,191
1657081149928,151,-755,207
1657081149968,42,-899,239
1657081150008,6,-1169,278
1657081150048,-44,-1414,282
1657081150088,-184,-1399,227
1657081150128,-345,-1249,155
1657081150168,-441,-1252,35
1657081150208,-393,-1340,9
1657081150248,-246,-1318,86
1657081150288,-173,-1150,108
1657081150328,-150,-1002,81
1657081150368,-185,-950,22
1657081150408,-190,-926,-12
1657081150448,-195,-928,-23
1657081150488,-224,-934,-65
1657081150528,-215,-1015,-91
1657081150568,-142,-1121,36
1657081150608,-127,-1130,130
1657081150648,-193,-1128,134
1657081150688,-224,-1135,169
1657081150728,-247,-1134,140
1657081150768,-324,-1123,87
1657081150808,-368,-1181,42
1657081150848,-339,-1340,138
1657081150888,-260,-1416,286
1657081150928,-212,-1359,337
1657081150968,-202,-1214,323
1657081151008,-114,-1130,340
1657081151048,-1,-993,356
1657081151088,60,-802,333
1657081151128,85,-653,292
1657081151168,101,-624,227
1657081151208,126,-684,183
1657081151248,108,-838,172
1657081151288,60,-1033,226
1657081151328,31,-1415,303
1657081151368,-57,-1562,335
1657081151408,-276,-1332,303
1657081151448,-472,-1182,106
1657081151488,-486,-1247,-67
1657081151528,-242,-1391,5
1657081151568,-93,-1277,111
1657081151608,-124,-1017,163
1657081151648,-258,-923,142
1657081151688,-240,-910,31
1657081151728,-203,-933,17
1657081151768,-225,-932,20
1657081151808,-263,-953,-22
1657081151848,-237,-1058,-11
1657081151888,-190,-1176,106
1657081151928,-215,-1190,146
1657081151968,-266,-1241,117
1657081152008,-303,-1197,86
1657081152048,-345,-1153,62
1657081152088,-343,-1262,79
1657081152128,-273,-1373,194
1657081152168,-247,-1426,318
1657081152208,-233,-1429,411
1657081152248,-195,-1354,367
1657081152288,-114,-1198,312
1657081152328,-27,-1002,320
1657081152368,46,-784,290
1657081152408,102,-612,245
1657081152448,141,-573,226
1657081152488,198,-629,223
1657081152528,217,-723,244
1657081152568,193,-1004,318
1657081152608,96,-1309,387
1657081152648,-23,-1671,356
1657081152688,-210,-1640,387
1657081152728,-419,-1446,337
1657081152768,-508,-1297,150
1657081152808,-366,-1478,75
1657081152848,-198,-1427,-36
1657081152888,-117,-1207,-11
1657081152928,-163,-1012,73
1657081152968,-263,-931,1
1657081153008,-277,-905,-63
1657081153048,-226,-898,-68
1657081153088,-217,-872,-74
1657081153128,-257,-901,-40
1657081153168,-260,-1022,30
1657081153208,-219,-1154,86
1657081153248,-257,-1365,162
1657081153288,-318,-1566,203
1657081153328,-411,-1470,116
1657081153368,-403,-1373,122
1657081153408,-270,-1551,336
1657081153448,-81,-1578,555
1657081153488,88,-1541,574
1657081153528,132,-1303,419
1657081153568,35,-1079,291
1657081153608,1,-868,309
1657081153648,52,-710,299
1657081153688,109,-597,237
1657081153728,164,-530,143
1657081153768,206,-591,135
1657081153808,179,-812,195
1657081153848,151,-1050,281
1657081153888,98,-1413,360
1657081153928,6,-1949,389
1657081153968,-262,-2021,415
1657081154008,-560,-1741,284
1657081154048,-768,-1278,12
1657081154088,-506,-1405,-157
1657081154128,-141,-1412,-129
1657081154168,38,-1225,6
1657081154208,-14,-911,211
1657081154248,-194,-785,266
1657081154288,-262,-791,169
1657081154328,-255,-844,96
1657081154368,-249,-938,26
1657081154408,-255,-1057,-34
1657081154448,-212,-1179,-30
1657081154488,-148,-1148,26
1657081154528,-138,-1056,118
1657081154568,-100,-1074,232
1657081154608,-167,-1098,318
1657081154648,-322,-1112,218
1657081154688,-409,-1147,59
1657081154728,-426,-1305,60
1657081154768,-307,-1448,248
1657081154808,-179,-1482,364
1657081154848,-97,-1449,380
1657081154888,-83,-1241,341
1657081154928,-92,-1006,288
1657081154968,-45,-859,265
1657081155008,43,-749,261
1657081155048,138,-623,230
1657081155088,251,-569,204
1657081155128,321,-636,218
1657081155168,212,-920,266
1657081155208,127,-1345,327
1657081155248,31,-1675,383
1657081155288,-189,-1681,339
1657081155328,-432,-1549,139
1657081155368,-332,-1195,-137
1657081155408,-471,-1428,-88
1657081155448,-179,-1385,-21
1657081155488,-74,-1159,41
1657081155528,-90,-949,189
1657081155568,-123,-806,208
1657081155608,-119,-764,130
1657081155648,-149,-784,79
1657081155688,-210,-823,49
1657081155728,-263,-880,39
1657081155768,-242,-1039,52
1657081155808,-240,-1214,103
1657081155848,-277,-1329,64
1657081155888,-331,-1422,48
1657081155928,-414,-1355,27
1657081155968,-460,-1247,-37
1657081156008,-324,-1357,119
1657081156048,-110,-1447,386
1657081156088,-6,-1343,556
1657081156128,-45,-1315,494
1657081156168,-91,-1198,370
1657081156208,-47,-1105,258
1657081156248,1,-914,245
1657081156288,59,-738,218
1657081156328,156,-629,157
1657081156368,242,-629,165
1657081156408,253,-748,183
1657081156448,172,-979,255
1657081156488,92,-1365,352
1657081156528,1,-1576,436
1657081156568,-219,-1416,404
1657081156608,-430,-1334,215
1657081156648,-525,-1410,-23
1657081156688,-413,-1551,-34
1657081156728,-227,-1406,27
1657081156768,-181,-1121,28
1657081156808,-215,-974,83
1657081156848,-198,-907,72
1657081156888,-146,-883,36
1657081156928,-120,-881,17
1657081156968,-147,-895,-41
1657081157008,-186,-994,-61
1657081157048,-158,-1120,-4
1657081157088,-158,-1147,55
1657081157128,-176,-1149,113
1657081157168,-159,-1174,192
1657081157208,-221,-1131,201
1657081157248,-328,-1092,73
1657081157288,-383,-1176,11
1657081157328,-355,-1371,144
1657081157368,-285,-1495,309
1657081157408,-297,-1500,352
1657081157448,-278,-1388,378
1657081157488,-136,-1226,386
1657081157528,24,-1016,345
1657081157568,145,-788,276
1657081157608,241,-582,211
1657081157648,314,-476,144
1657081157688,256,-553,116
1657081157728,128,-826,170
1657081157768,82,-1135,228
1657081157808,50,-1520,289
1657081157848,-53,-1843,348
1657081157888,-294,-1658,319
1657081157928,-498,-1397,130
1657081157968,-559,-1323,-88
1657081158008,-337,-1451,-87
1657081158048,-131,-1366,44
1657081158088,-111,-1097,126
1657081158128,-216,-924,164
1657081158168,-246,-860,94
1657081158208,-211,-849,20
1657081158248,-213,-855,-9
1657081158288,-244,-850,-38
1657081158328,-242,-954,-23
1657081158368,-200,-1123,85
1657081158408,-230,-1191,164
1657081158448,-314,-1258,183
1657081158488,-372,-1396,219
1657081158528,-382,-1385,161
1657081158568,-356,-1282,33
1657081158608,-278,-1391,128
1657081158648,-169,-1511,363
1657081158688,-22,-1618,467
1657081158728,29,-1382,426
1657081158768,18,-1100,281
1657081158808,-19,-922,229
1657081158848,33,-786,281
1657081158888,111,-664,312
1657081158928,163,-539,295
1657081158968,166,-607,208
1657081159008,124,-810,176
1657081159048,123,-1022,175
1657081159088,108,-1364,216
1657081159128,11,-1631,338
1657081159168,-222,-1521,387
1657081159208,-446,-1498,235
1657081159248,-551,-1525,-5
1657081159288,-461,-1497,-95
1657081159328,-253,-1325,-78
1657081159368,-153,-1099,-7
1657081159408,-115,-939,82
1657081159448,-98,-875,120
1657081159488,-117,-865,96
1657081159528,-204,-841,15
1657081159568,-265,-881,-27
1657081159608,-203,-1054,0
1657081159648,-122,-1177,78
1657081159688,-183,-1216,114
1657081159728,-222,-1203,139
1657081159768,-246,-1143,199
1657081159808,-337,-1021,152
1657081159848,-419,-1066,86
1657081159888,-397,-1297,214
1657081159928,-289,-1464,317
1657081159968,-222,-1483,380
1657081160008,-224,-1373,373
1657081160048,-166,-1195,329
1657081160088,-42,-1047,295
1657081160128,70,-910,262
1657081160168,166,-747,231
1657081160208,180,-594,196
1657081160248,125,-617,159
1657081160288,104,-752,158
1657081160328,128,-939,197
1657081160368,89,-1246,258
1657081160408,-31,-1498,262
1657081160448,-221,-1411,253
1657081160488,-417,-1304,158
1657081160528,-499,-1309,10
1657081160568,-332,-1353,44
1657081160608,-167,-1276,135
1657081160648,-124,-1095,129
1657081160688,-173,-1001,91
1657081160728,-187,-953,33
1657081160768,-178,-932,-2
1657081160808,-172,-872,-30
1657081160848,-197,-914,-26
1657081160888,-183,-1038,25
1657081160928,-167,-1179,129
1657081160968,-244,-1261,178
1657081161008,-322,-1287,198
1657081161048,-439,-1162,137
1657081161088,-542,-1051,26
1657081161128,-486,-1251,100
1657081161168,-270,-1530,302
1657081161208,-110,-1558,425
1657081161248,-49,-1392,533
1657081161288,-41,-1206,426
1657081161328,-21,-1088,289
1657081161368,49,-947,290
1657081161408,113,-792,317
1657081161448,167,-662,211
1657081161488,187,-632,137
1657081161528,171,-756,150
1657081161568,135,-932,188
1657081161608,88,-1180,211
1657081161648,24,-1433,264
1657081161688,-124,-1431,310
1657081161728,-350,-1266,279
1657081161768,-505,-1272,160
1657081161808,-426,-1311,86
1657081161848,-220,-1293,105
1657081161888,-139,-1153,110
1657081161928,-150,-992,142
1657081161968,-179,-930,150
1657081162008,-177,-895,132
1657081162048,-210,-888,79
1657081162088,-250,-924,16
1657081162128,-246,-1063,8
1657081162168,-226,-1220,19
1657081162208,-236,-1186,79
1657081162248,-276,-1172,137
1657081162288,-250,-1174,85
1657081162328,-267,-1117,-7
1657081162368,-342,-1096,-21
1657081162408,-305,-1267,109
1657081162448,-235,-1403,317
1657081162488,-169,-1389,405
1657081162528,-190,-1252,397
1657081162568,-134,-1167,402
1657081162608,-35,-1078,394
1657081162648,46,-960,334
1657081162688,105,-833,297
1657081162728,113,-713,234
1657081162768,86,-681,138
1657081162808,93,-803,87
1657081162848,118,-954,107
1657081162888,113,-1177,180
1657081162928,72,-1331,305
1657081162968,-106,-1217,369
1657081163008,-319,-1128,224
1657081163048,-385,-1237,79
1657081163088,-253,-1325,54
1657081163128,-147,-1256,115
1657081163168,-209,-1136,140
1657081163208,-272,-1038,108
1657081163248,-277,-1014,33
1657081163288,-270,-995,-19
1657081163328,-252,-991,1
1657081163368,-242,-1000,-18
1657081163408,-206,-1061,-30
1657081163448,-137,-1096,4
1657081163488,-111,-1050,80
1657081163528,-135,-1042,115
1657081163568,-136,-1063,96
1657081163608,-149,-1124,81
1657081163648,-290,-1151,9
1657081163688,-472,-1209,-59
1657081163728,-531,-1436,171
1657081163768,-357,-1574,521
1657081163808,-179,-1454,626
1657081163848,-89,-1286,454
1657081163888,-57,-1171,324
1657081163928,52,-1034,261
1657081163968,171,-838,254
1657081164008,230,-666,231
1657081164048,211,-581,210
1657081164088,216,-593,185
1657081164128,191,-745,185
1657081164168,177,-1017,210
1657081164208,160,-1430,281
1657081164248,39,-1674,372
1657081164288,-223,-1567,358
1657081164328,-434,-1424,154
1657081164368,-540,-1442,17
1657081164408,-348,-1440,30
1657081164448,-170,-1285,90
1657081164488,-101,-1053,168
1657081164528,-144,-926,187
1657081164568,-166,-884,85
1657081164608,-157,-863,33
1657081164648,-201,-836,-2
1657081164688,-224,-901,-44
1657081164728,-173,-1031,-30
1657081164768,-163,-1130,31
1657081164808,-215,-1158,41
1657081164848,-229,-1216,67
1657081164888,-273,-1245,92
1657081164928,-367,-1197,20
1657081164968,-457,-1290,16
1657081165008,-372,-1516,280
1657081165048,-192,-1606,472
1657081165088,-94,-1478,499
1657081165128,-115,-1239,416
1657081165168,-101,-1109,319
1657081165208,15,-1013,320
1657081165248,160,-845,322
1657081165288,229,-657,274
1657081165328,242,-600,214
1657081165368,205,-689,175
1657081165408,111,-843,143
1657081165448,82,-1143,148
1657081165488,79,-1437,226
1657081165528,-56,-1467,318
1657081165568,-285,-1376,252
1657081165608,-435,-1339,120
1657081165648,-420,-1438,26
1657081165688,-245,-1445,120
1657081165728,-203,-1258,181
1657081165768,-226,-1077,142
1657081165808,-247,-1004,43
1657081165848,-221,-978,-43
1657081165888,-181,-945,-60
1657081165928,-196,-898,-76
1657081165968,-216,-935,-38
1657081166008,-161,-1063,1
1657081166048,-136,-1127,95
1657081166088,-200,-1146,158
1657081166128,-233,-1195,141
1657081166168,-301,-1128,105
1657081166208,-420,-1094,21
1657081166248,-427,-1321,134
1657081166288,-292,-1547,325
1657081166328,-189,-1541,395
1657081166368,-170,-1399,445
1657081166408,-147,-1211,430
1657081166448,-67,-1089,369
1657081166488,56,-974,328
1657081166528,161,-780,291
1657081166568,199,-618,228
1657081166608,190,-660,134
1657081166648,152,-810,114
1657081166688,98,-938,134
1657081166728,61,-1165,161
1657081166768,-29,-1330,223
1657081166808,-186,-1248,280
1657081166848,-348,-1260,235
1657081166888,-371,-1392,124
1657081166928,-293,-1405,125
1657081166968,-250,-1340,142
1657081167008,-255,-1206,72
1657081167048,-257,-1073,35
1657081167088,-237,-994,8
1657081167128,-215,-974,-19
1657081167168,-203,-939,-36
1657081167208,-213,-916,-54
1657081167248,-197,-1001,-28
1657081167288,-169,-1031,75
1657081167328,-200,-1061,158
1657081167368,-205,-1156,178
1657081167408,-261,-1165,119
1657081167448,-376,-1147,-26
1657081167488,-457,-1231,-46
1657081167528,-405,-1443,161
1657081167568,-272,-1552,364
1657081167608,-167,-1455,411
1657081167648,-95,-1341,372
1657081167688,-30,-1229,337
1657081167728,36,-1029,322
1657081167768,84,-834,280
1657081167808,96,-688,244
1657081167848,129,-673,200
1657081167888,150,-720,155
1657081167928,117,-840,132
1657081167968,78,-1009,130
1657081168008,63,-1253,190
1657081168048,-65,-1288,272
1657081168088,-258,-1175,255
1657081168128,-377,-1282,163
1657081168168,-354,-1420,111
1657081168208,-242,-1474,184
1657081168248,-258,-1324,144
1657081168288,-305,-1136,95
1657081168328,-285,-1007,38
1657081168368,-227,-981,2
1657081168408,-187,-947,-25
1657081168448,-195,-917,-61
1657081168488,-252,-913,-99
1657081168528,-252,-1023,-46
1657081168568,-222,-1126,66
1657081168608,-261,-1130,134
1657081168648,-283,-1200,138
1657081168688,-296,-1274,152
1657081168728,-361,-1226,77
1657081168768,-380,-1297,120
1657081168808,-315,-1424,344
1657081168848,-193,-1408,487
1657081168888,-122,-1267,465
1657081168928,-128,-1120,367
1657081168968,-91,-1021,288
1657081169008,14,-912,269
1657081169048,92,-768,256
1657081169088,138,-663,227
1657081169128,132,-659,202
1657081169168,78,-750,181
1657081169208,77,-884,165
1657081169248,88,-1122,223
1657081169288,63,-1458,280
1657081169328,-86,-1552,316
1657081169368,-307,-1352,293
1657081169408,-551,-1293,-91
1657081169448,-513,-1309,91
1657081169488,-301,-1452,60
1657081169528,-192,-1333,65
1657081169568,-193,-1114,104
1657081169608,-236,-998,91
1657081169648,-214,-955,38
1657081169688,-154,-925,35
1657081169728,-153,-907,14
1657081169768,-197,-885,-55
1657081169808,-189,-926,-65
1657081169848,-87,-1001,7
1657081169888,-66,-995,100
1657081169928,-106,-1026,144
1657081169968,-158,-1120,162
1657081170008,-290,-1201,159
1657081170048,-508,-1302,85
1657081170088,-651,-1411,125
1657081170128,-507,-1581,354
1657081170168,-254,-1560,478
1657081170208,-82,-1333,485
1657081170248,-33,-1132,402
1657081170288,18,-1029,307
1657081170328,90,-864,267
1657081170368,139,-713,215
1657081170408,153,-630,183
1657081170448,169,-667,186
1657081170488,138,-813,202
1657081170528,81,-990,195
1657081170568,55,-1254,210
1657081170608,6,-1419,272
1657081170648,-149,-1348,327
1657081170688,-324,-1326,219
1657081170728,-408,-1407,95
1657081170768,-369,-1498,79
1657081170808,-306,-1400,62
1657081170848,-305,-1200,31
1657081170888,-283,-1044,57
1657081170928,-229,-959,9
1657081170968,-192,-934,13
1657081171008,-196,-889,3
1657081171048,-218,-885,-46
1657081171088,-175,-1066,-12
1657081171128,-149,-1184,80
1657081171168,-222,-1276,151
1657081171208,-288,-1388,178
1657081171248,-365,-1240,48
1657081171288,-453,-1078,-94
1657081171328,-398,-1199,-17
1657081171368,-183,-1447,229
1657081171408,-19,-1441,412
1657081171448,8,-1309,459
1657081171488,-83,-1207,343
1657081171528,-116,-1053,261
1657081171568,-61,-930,309
1657081171608,4,-818,387
1657081171648,45,-703,352
1657081171688,43,-711,249
1657081171728,55,-832,162
1657081171768,114,-905,123
1657081171808,139,-1049,149
1657081171848,79,-1225,242
1657081171888,-93,-1214,282
1657081171928,-297,-1158,212
1657081171968,-389,-1285,48
1657081172008,-296,-1377,-7
1657081172048,-169,-1309,119
1657081172088,-215,-1163,143
1657081172128,-242,-1034,116
1657081172168,-223,-977,100
1657081172208,-181,-963,94
1657081172248,-176,-950,102
1657081172288,-209,-973,79
1657081172328,-229,-1029,43
1657081172368,-230,-1073,50
1657081172408,-270,-1106,47
1657081172448,-306,-1167,14
1657081172488,-308,-1259,29
1657081172528,-343,-1232,57
1657081172568,-415,-1150,-11
1657081172608,-397,-1288,79
1657081172648,-270,-1487,290
1657081172688,-136,-1526,434
1657081172728,-103,-1394,499
1657081172768,-118,-1209,480
1657081172808,-70,-1111,430
1657081172848,23,-1007,368
1657081172888,92,-841,303
1657081172928,102,-699,222
1657081172968,98,-662,128
1657081173008,107,-731,88
1657081173048,148,-879,120
1657081173088,115,-1051,188
1657081173128,72,-1347,219
1657081173168,-56,-1436,286
1657081173208,-296,-1216,328
1657081173248,-493,-1241,237
1657081173288,-423,-1332,134
1657081173328,-196,-1345,160
1657081173368,-116,-1202,158
1657081173408,-193,-1054,77
1657081173448,-295,-986,16
1657081173488,-296,-992,-56
1657081173528,-278,-992,-97
1657081173568,-271,-960,-104
1657081173608,-272,-1028,-61
1657081173648,-238,-1165,42
1657081173688,-240,-1209,167
1657081173728,-287,-1298,283
1657081173768,-276,-1344,196
1657081173808,-285,-1216,4
1657081173848,-329,-1162,-56
1657081173888,316,-1305,210
1657081173928,148,-1490,276
1657081173968,-108,-1511,327
1657081174008,-178,-1314,499
1657081174048,-157,-1160,324
1657081174088,-105,-1020,307
1657081174128,6,-871,358
1657081174168,100,-731,320
1657081174208,156,-627,267
1657081174248,160,-613,189
1657081174288,146,-700,164
1657081174328,141,-878,194
1657081174368,99,-1127,231
1657081174408,17,-1481,286
1657081174448,-106,-1702,320
1657081174488,-311,-1570,372
1657081174528,-508,-1352,249
1657081174568,-586,-1346,89
1657081174608,-425,-1426,29
1657081174648,-247,-1317,22
1657081174688,-176,-1095,46
1657081174728,-202,-940,87
1657081174768,-199,-913,45
1657081174808,-141,-895,9
1657081174848,-134,-879,-9
1657081174888,-177,-945,-14
1657081174928,-236,-1091,81
1657081174968,-259,-1193,112
1657081175008,-333,-1209,66
1657081175048,-381,-1251,44
1657081175088,-332,-1386,61
1657081175128,-217,-1360,0
1657081175168,-267,-1406,310
1657081175208,3,-792,900
1657081175248,6,-1294,202
1657081175288,-13,-1162,194
1657081175328,-172,-1068,453
1657081175368,-107,-936,315
1657081175408,-3,-815,271
1657081175448,97,-693,189
1657081175488,126,-615,138
1657081175528,148,-657,82
1657081175568,162,-807,100
1657081175608,129,-1025,205
1657081175648,55,-1382,284
1657081175688,-101,-1579,309
1657081175728,-316,-1478,298
1657081175768,-497,-1274,154
1657081175808,-540,-1238,18
1657081175848,-364,-1363,63
1657081175888,-190,-1286,131
1657081175928,-123,-1069,117
1657081175968,-138,-924,40
1657081176008,-173,-900,-26
1657081176048,-162,-883,-47
1657081176088,-147,-885,-59
1657081176128,-161,-943,-50
1657081176168,-182,-1010,-12
1657081176208,-178,-1122,51
1657081176248,-199,-1286,126
1657081176288,-270,-1389,136
1657081176328,-387,-1335,62
1657081176368,-487,-1125,3
1657081176408,-476,-1101,73
1657081176448,-332,-1343,279
1657081176488,-123,-1459,430
1657081176528,-24,-1345,456
1657081176568,-35,-1102,391
1657081176608,-97,-953,264
1657081176648,-57,-843,241
1657081176688,26,-763,260
1657081176728,71,-687,258
1657081176768,41,-683,176
1657081176808,30,-815,97
1657081176848,65,-958,120
1657081176888,85,-1122,212
1657081176928,26,-1305,262
1657081176968,-101,-1308,297
1657081177008,-261,-1145,277
1657081177048,-373,-1162,158
1657081177088,-364,-1312,71
1657081177128,-271,-1371,109
1657081177168,-225,-1268,144
1657081177208,-252,-1069,145
1657081177248,-265,-978,60
1657081177288,-218,-973,-6
1657081177328,-192,-946,-20
1657081177368,-228,-917,-38
1657081177408,-229,-998,-35
1657081177448,-192,-1096,46
1657081177488,-225,-1104,132
1657081177528,-293,-1113,137
1657081177568,-317,-1166,118
1657081177608,-347,-1162,59
1657081177648,-390,-1150,-5
1657081177688,-385,-1301,107
1657081177728,-279,-1476,341
1657081177768,-179,-1473,466
1657081177808,-148,-1337,459
1657081177848,-144,-1232,358
1657081177888,-81,-1127,315
1657081177928,6,-976,311
1657081177968,58,-803,269
1657081178008,83,-714,201
1657081178048,137,-727,137
1657081178088,204,-711,117
1657081178128,180,-835,133
1657081178168,158,-1157,227
1657081178208,92,-1345,348
1657081178248,-135,-1262,403
1657081178288,-364,-1329,238
1657081178328,-457,-1440,56
1657081178368,-337,-1512,144
1657081178408,-222,-1381,242
1657081178448,-236,-1178,120
1657081178488,-269,-1063,22
1657081178528,-233,-987,-35
1657081178568,-166,-961,-67
1657081178608,-158,-909,-62
1657081178648,-204,-896,-52
1657081178688,-212,-987,-13
1657081178728,-197,-1084,93
1657081178768,-253,-1130,169
1657081178808,-294,-1262,206
1657081178848,-376,-1293,181
1657081178888,-428,-1169,-33
1657081178928,-444,-1234,-71
1657081178968,-265,-1427,150
1657081179008,-57,-1450,365
1657081179048,-9,-1380,429
1657081179088,-186,-1351,422
1657081179128,-231,-1233,487
1657081179168,-116,-1022,314
1657081179208,-56,-871,269
1657081179248,15,-734,277
1657081179288,95,-673,258
1657081179328,165,-750,213
1657081179368,193,-853,171
1657081179408,121,-969,202
1657081179448,42,-1106,259
1657081179488,-28,-1104,303
1657081179528,-167,-1119,252
1657081179568,-254,-1321,142
1657081179608,-69,-1927,-704
1657081179648,-369,-1423,139
1657081179688,-236,-1312,351
1657081179728,-301,-1121,26
1657081179768,-306,-1064,64
1657081179808,-240,-1018,1
1657081179848,-216,-971,12
1657081179888,-242,-913,-25
1657081179928,-247,-927,-54
1657081179968,-225,-1056,2
1657081180008,-249,-1080,92
1657081180048,-298,-1191,140
1657081180088,-298,-1325,153
1657081180128,-382,-1227,-14
1657081180168,-468,-1158,-118
1657081180208,-366,-1404,82
1657081180248,-196,-1606,360
1657081180288,-103,-1539,433
1657081180328,-114,-1381,403
1657081180368,-114,-1224,347
1657081180408,-41,-1048,321
1657081180448,57,-890,315
1657081180488,139,-732,291
1657081180528,184,-595,233
1657081180568,168,-585,151
1657081180608,129,-734,119
1657081180648,132,-952,137
1657081180688,121,-1255,187
1657081180728,36,-1544,271
1657081180768,-129,-1587,336
1657081180808,-391,-1402,308
1657081180848,-657,-1778,-174
1657081180888,-432,-1394,135
1657081180928,-259,-1429,45
1657081180968,-139,-1234,44
1657081181008,-143,-998,166
1657081181048,-224,-856,118
1657081181088,-236,-849,-1
1657081181128,-214,-815,-47
1657081181168,-193,-833,-45
1657081181208,-155,-980,20
1657081181248,-195,-1091,109
1657081181288,-286,-1172,135
1657081181328,-355,-1345,131
1657081181368,-400,-1372,84
1657081181408,-474,-1225,-63
1657081181448,-458,-1238,-22
1657081181488,-290,-1500,248
1657081181528,-90,-1583,458
1657081181568,-11,-1509,512
1657081181608,7,-1307,389
1657081181648,-42,-1136,297
1657081181688,-36,-960,279
1657081181728,11,-805,295
1657081181768,42,-681,249
1657081181808,84,-642,141
1657081181848,167,-683,81
1657081181888,215,-742,74
1657081181928,176,-947,117
1657081181968,177,-1359,214
1657081182008,66,-1661,368
1657081182048,-208,-1540,397
1657081182088,-508,-1428,229
1657081182128,-640,-1424,-12
1657081182168,-433,-1530,-41
1657081182208,-206,-1363,6
1657081182248,-122,-1089,57
1657081182288,-141,-900,131
1657081182328,-163,-824,97
1657081182368,-139,-828,27
1657081182408,-144,-867,-48
1657081182448,-162,-1007,-87
1657081182488,-163,-1168,-22
1657081182528,-210,-1138,141
1657081182568,-299,-1078,222
1657081182608,-291,-1126,179
1657081182648,-250,-1144,87
1657081182688,-323,-1124,-30
1657081182728,-422,-1240,13
1657081182768,-363,-1434,270
1657081182808,-234,-1439,429
1657081182848,-163,-1347,448
1657081182888,-136,-1217,436
1657081182928,-93,-1084,396
1657081182968,-14,-947,331
1657081183008,72,-827,266
1657081183048,121,-716,219
1657081183088,155,-688,151
1657081183128,164,-739,90
1657081183168,104,-878,81
1657081183208,40,-1081,104
1657081183248,-10,-1308,148
1657081183288,-100,-1364,237
1657081183328,-254,-1224,305
1657081183368,-400,-1128,216
1657081183408,-417,-1224,139
1657081183448,-312,-1330,161
1657081183488,-216,-1256,174
1657081183528,-193,-1079,178
1657081183568,-231,-983,122
1657081183608,-256,-991,33
1657081183648,-242,-1017,-41
1657081183688,-234,-1017,-74
1657081183728,-254,-1002,-61
1657081183768,-230,-1099,-13
1657081183808,-196,-1170,74
1657081183848,-214,-1167,81
1657081183888,-248,-1170,75
1657081183928,-244,-1193,88
1657081183968,-255,-1196,69
1657081184008,686,-1331,209
1657081184048,-292,-985,172
1657081184088,-232,-1386,392
1657081184128,-190,-1255,481
1657081184168,-104,-1075,443
1657081184208,-97,-930,346
1657081184248,-32,-825,285
1657081184288,28,-750,217
1657081184328,69,-708,182
1657081184368,73,-738,158
1657081184408,47,-815,133
1657081184448,10,-952,214
1657081184488,-126,-1127,336
1657081184528,-397,-1465,404
1657081184568,-794,-1589,127
1657081184608,-838,-1437,-73
1657081184648,-659,-1250,-740
1657081184688,262,-1012,-217
1657081184728,30,-915,-32
1657081184768,-306,-739,363
1657081184808,-656,-836,626
1657081184848,-563,-1071,285
1657081184888,-388,-788,489
1657081184928,25,466,561
1657081184968,-60,-737,-309
1657081185008,-406,-716,-59
1657081185048,-890,-631,143
1657081185088,-971,-737,407
1657081185128,-998,-1219,393
1657081185168,-437,-1030,824
1657081185208,-578,-1148,550
1657081185248,-195,-1012,705
1657081185288,-348,-801,516
1657081185328,-368,-957,356
1657081185368,-441,-913,174
1657081185408,-280,-905,408
1657081185448,-260,-970,130
1657081185488,-198,-908,219
1657081185528,-139,-922,342
1657081185568,-244,-976,231
1657081185608,-272,-1043,-15
1657081185648,-110,-1108,208
1657081185688,-64,-1022,462
1657081185728,-72,-1004,473
1657081185768,-98,-1088,494
1657081185808,-105,-1224,382
1657081185848,97,-1198,670
1657081185888,-12,-799,648
1657081185928,-24,-601,537
1657081185968,132,-717,314
1657081186008,284,-976,383
1657081186048,138,-969,489
1657081186088,-134,-1060,403
1657081186128,-210,-1069,201
1657081186168,-159,-1062,38
1657081186208,-83,-1007,-77
1657081186248,-102,-937,-94
1657081186288,-175,-892,-49
1657081186328,-173,-967,-20
1657081186368,-119,-1116,23
1657081186408,-133,-1148,99
1657081186448,-211,-1230,156
1657081186488,-296,-1281,208
1657081186528,-434,-1142,127
1657081186568,-498,-1160,65
1657081186608,-372,-1397,223
1657081186648,-129,-1462,377
1657081186688,1,-1314,439
1657081186728,-35,-1068,386
1657081186768,-93,-943,279
1657081186808,-50,-858,276
1657081186848,40,-768,285
1657081186888,86,-668,264
1657081186928,78,-711,212
1657081186968,37,-844,169
1657081187008,19,-987,153
1657081187048,-14,-1104,198
1657081187088,-26,-1332,234
1657081187128,-60,-1497,302
1657081187168,-221,-1214,396
1657081187208,-371,-982,387
1657081187248,-261,-1057,328
1657081187288,-65,-1188,211
1657081187328,-10,-1197,108
1657081187368,-121,-1156,100
1657081187408,-228,-1057,177
1657081187448,-275,-1021,148
1657081187488,-254,-992,46
1657081187528,-253,-974,-21
1657081187568,-239,-961,-74
1657081187608,-190,-1066,-56
1657081187648,-196,-1171,48
1657081187688,-254,-1170,149
1657081187728,-293,-1184,211
1657081187768,-290,-1184,230
1657081187808,-284,-1180,181
1657081187848,-290,-1210,205
1657081187888,-264,-1322,343
1657081187928,-145,-1263,570
1657081187968,-167,-1470,403
1657081188008,-130,-1434,422
1657081188048,-166,-1291,463
1657081188088,-73,-1183,422
1657081188128,73,-994,357
1657081188168,193,-745,256
1657081188208,226,-559,188
1657081188248,236,-558,137
1657081188288,224,-695,115
1657081188328,164,-927,119
1657081188368,116,-1228,178
1657081188408,49,-1518,290
1657081188448,-124,-1583,360
1657081188488,-386,-1600,317
1657081188528,-717,-1252,322
1657081188568,-695,-1638,147
1657081188608,-956,-2046,-97
1657081188648,-1177,-2046,-577
1657081188688,104,-1770,-53
1657081188728,2046,-2046,-1163
1657081188768,331,-1851,1175
1657081188808,-175,-2046,2046
1657081188848,-2048,-2046,-864
1657081188888,2046,-1495,-251
1657081188928,1799,117,388
1657081188968,-1491,-210,830
1657081189008,-578,-1840,210
1657081189048,-406,-1574,355
1657081189088,-439,-1385,285
1657081189128,-384,-826,811
1657081189168,-288,-1346,-124
1657081189208,54,-866,452
1657081189248,-97,-1006,475
1657081189288,-124,-924,424
1657081189328,-117,-880,375
1657081189368,-58,-820,421
1657081189408,18,-730,414
1657081189448,53,-693,436
1657081189488,44,-668,404
1657081189528,42,-762,335
1657081189568,68,-956,325
1657081189608,52,-1158,348
1657081189648,-3,-1421,323
1657081189688,-92,-1573,286
1657081189728,-246,-1364,250
1657081189768,-397,-1114,137
1657081189808,-409,-1060,42
1657081189848,-185,-1198,32
1657081189888,39,-1166,72
1657081189928,186,-977,178
1657081189968,123,-838,353
1657081190008,-4,-808,392
1657081190048,-80,-884,248
1657081190088,-92,-933,105
1657081190128,-154,-921,65
1657081190168,-214,-927,71
1657081190208,-222,-1041,50
1657081190248,-220,-1087,68
1657081190288,-226,-1099,136
1657081190328,-215,-1196,213
1657081190368,-222,-1233,143
1657081190408,-318,-1129,5
1657081190448,-415,-1267,36
1657081190488,-373,-1545,312
1657081190528,-249,-1692,521
1657081190568,-132,-1644,602
1657081190608,-60,-1435,540
1657081190648,-15,-1251,365
1657081190688,47,-1116,281
1657081190728,142,-898,233
1657081190768,238,-656,197
1657081190808,251,-544,163
1657081190848,254,-618,90
1657081190888,204,-783,69
1657081190928,143,-995,139
1657081190968,139,-1366,258
1657081191008,71,-1610,394
1657081191048,-174,-1627,505
1657081191088,-464,-1578,374
1657081191128,-593,-1588,163
1657081191168,-533,-1587,53
1657081191208,-325,-1369,-64
1657081191248,-176,-1156,-94
1657081191288,-97,-1015,-43
1657081191328,-60,-913,4
1657081191368,-48,-816,11
1657081191408,-86,-730,7
1657081191448,-141,-766,1
1657081191488,-97,-997,22
1657081191528,-78,-1142,116
1657081191568,-190,-1240,176
1657081191608,-314,-1326,227
1657081191648,-497,-1284,215
1657081191688,-647,-1248,118
1657081191728,-494,-1382,124
1657081191768,-208,-1585,350
1657081191808,-22,-1611,585
1657081191848,73,-1490,604
1657081191888,98,-1154,379
1657081191928,14,-984,166
1657081191968,16,-868,116
1657081192008,91,-748,149
1657081192048,146,-623,132
1657081192088,155,-596,103
1657081192128,136,-781,122
1657081192168,141,-989,173
1657081192208,129,-1286,236
1657081192248,60,-1566,279
1657081192288,-154,-1508,342
1657081192328,-410,-1390,304
1657081192368,-508,-1120,227
1657081192408,-479,-1531,132
1657081192448,-227,-1395,97
1657081192488,-92,-1152,73
1657081192528,-31,-904,68
1657081192568,-43,-790,62
1657081192608,-110,-804,78
1657081192648,-176,-775,59
1657081192688,-248,-795,29
1657081192728,-260,-941,10
1657081192768,-220,-1081,33
1657081192808,-225,-1082,83
1657081192848,-269,-1131,82
1657081192888,-264,-1221,147
1657081192928,-330,-1227,177
1657081192968,-413,-1191,95
1657081193008,-440,-1350,142
1657081193048,-312,-1567,349
1657081193088,-151,-1587,477
1657081193128,-57,-1431,499
1657081193168,-65,-1221,386
1657081193208,-80,-1083,236
1657081193248,8,-945,191
1657081193288,132,-793,149
1657081193328,222,-630,127
1657081193368,205,-564,152
1657081193408,140,-685,184
1657081193448,116,-939,177
1657081193488,110,-1244,206
1657081193528,61,-1606,265
1657081193568,-114,-1657,296
1657081193608,-373,-1387,246
1657081193648,-744,-1507,-144
1657081193688,-400,-1372,79
1657081193728,-135,-1421,167
1657081193768,-54,-1188,199
1657081193808,-151,-968,263
1657081193848,-273,-891,200
1657081193888,-265,-877,63
1657081193928,-246,-885,-10
1657081193968,-278,-892,-38
1657081194008,-287,-993,-70
1657081194048,-272,-1124,-13
1657081194088,-252,-1145,121
1657081194128,-288,-1143,168
1657081194168,-217,-1189,154
1657081194208,-179,-1177,205
1657081194248,-262,-1130,160
1657081194288,-314,-1200,125
1657081194328,-281,-1303,268
1657081194368,-178,-1390,444
1657081194408,-106,-1450,436
1657081194448,-71,-1302,290
1657081194488,-61,-1218,197
1657081194528,19,-1096,207
1657081194568,89,-888,240
1657081194608,100,-688,238
1657081194648,118,-606,188
1657081194688,182,-649,187
1657081194728,231,-811,208
1657081194768,182,-1103,218
1657081194808,131,-1489,277
1657081194848,-21,-1552,390
1657081194888,-286,-1359,404
1657081194928,-572,-1749,-706
1657081194968,-710,-1471,23
1657081195008,-272,-1432,224
1657081195048,-182,-1242,-52
1657081195088,-178,-1028,-5
1657081195128,-151,-928,86
1657081195168,-95,-874,74
1657081195208,-80,-833,33
1657081195248,-153,-857,29
1657081195288,-245,-976,76
1657081195328,-228,-1097,103
1657081195368,-221,-1099,151
1657081195408,-251,-1065,187
1657081195448,-218,-1114,237
1657081195488,-225,-1146,264
1657081195528,-366,-1151,100
1657081195568,-394,-1234,92
1657081195608,-301,-1344,341
1657081195648,-192,-1337,467
1657081195688,-151,-1336,419
1657081195728,-86,-1223,283
1657081195768,-59,-1084,169
1657081195808,4,-953,115
1657081195848,103,-846,119
1657081195888,155,-726,156
1657081195928,149,-656,137
1657081195968,96,-722,143
1657081196008,88,-883,197
1657081196048,81,-1102,228
1657081196088,17,-1400,278
1657081196128,-85,-1687,310
1657081196168,-255,-1498,312
1657081196208,-439,-1140,202
1657081196248,-530,-1093,67
1657081196288,-350,-1286,84
1657081196328,-175,-1314,173
1657081196368,-139,-1092,196
1657081196408,-200,-923,148
1657081196448,-229,-886,63
1657081196488,-194,-903,3
1657081196528,-166,-865,-7
1657081196568,-190,-820,9
1657081196608,-170,-936,64
1657081196648,-124,-1097,155
1657081196688,-161,-1131,247
1657081196728,-205,-1267,317
1657081196768,-337,-1265,255
1657081196808,-503,-1192,-43
1657081196848,-523,-1241,-101
1657081196888,-318,-1509,196
1657081196928,-139,-1624,449
1657081196968,-49,-1497,425
1657081197008,-26,-1240,293
1657081197048,-20,-1062,162
1657081197088,61,-879,170
1657081197128,152,-712,204
1657081197168,203,-550,195
1657081197208,152,-534,183
1657081197248,77,-711,173
1657081197288,134,-928,207
1657081197328,132,-1229,312
1657081197368,49,-1585,380
1657081197408,-140,-1627,379
1657081197448,-402,-1413,273
1657081197488,-549,-1362,19
1657081197528,-475,-1401,-136
1657081197568,-225,-1360,-81
1657081197608,-96,-1187,53
1657081197648,-55,-973,182
1657081197688,-90,-830,242
1657081197728,-137,-827,180
1657081197768,-174,-829,75
1657081197808,-219,-805,8
1657081197848,-231,-887,-1
1657081197888,-180,-1135,38
1657081197928,-217,-1303,145
1657081197968,-326,-1431,181
1657081198008,-439,-1427,166
1657081198048,-505,-1164,40
1657081198088,-470,-1094,9
1657081198128,-286,-1316,190
1657081198168,-119,-1495,388
1657081198208,-75,-1446,493
1657081198248,-140,-1309,431
1657081198288,-162,-1124,326
1657081198328,-55,-1013,249
1657081198368,71,-874,260
1657081198408,132,-677,258
1657081198448,119,-554,211
1657081198488,59,-651,152
1657081198528,93,-802,140
1657081198568,136,-983,213
1657081198608,119,-1241,280
1657081198648,31,-1487,341
1657081198688,-162,-1378,370
1657081198728,-358,-1320,224
1657081198768,-522,-1370,-325
1657081198808,-368,-1369,50
1657081198848,-185,-1327,77
1657081198888,-189,-1117,74
1657081198928,-195,-977,158
1657081198968,-168,-901,104
1657081199008,-157,-907,55
1657081199048,-200,-879,0
1657081199088,-249,-898,-40
1657081199128,-222,-1039,8
1657081199168,-162,-1116,144
1657081199208,-203,-1139,223
1657081199248,-271,-1208,215
1657081199288,-322,-1181,185
1657081199328,-393,-1096,86
1657081199368,-448,-1133,54
1657081199408,-352,-1327,188
1657081199448,-211,-1515,342
1657081199488,-149,-1529,418
1657081199528,-112,-1386,397
1657081199568,-85,-1163,283
1657081199608,-17,-1010,212
1657081199648,87,-875,222
1657081199688,168,-705,223
1657081199728,159,-565,191
1657081199768,66,-619,152
1657081199808,89,-820,145
1657081199848,135,-1006,204
1657081199888,56,-1243,273
1657081199928,-58,-1457,304
1657081199968,-235,-1344,297
1657081200008,-396,-1224,211
1657081200048,-453,-1277,10
1657081200088,-333,-1347,-81
1657081200128,-183,-1305,43
1657081200168,-140,-1112,158
1657081200208,-154,-963,173
1657081200248,-171,-939,108
1657081200288,-150,-930,56
1657081200328,-149,-888,5
1657081200368,-178,-888,-41
1657081200408,-158,-1031,-32
1657081200448,-124,-1109,92
1657081200488,-194,-1126,169
1657081200528,-259,-1197,171
1657081200568,-325,-1191,148
1657081200608,-412,-1081,39
1657081200648,-497,-1133,-32
1657081200688,-398,-1387,114
1657081200728,-263,-1556,297
1657081200768,-205,-1525,397
1657081200808,-195,-1399,435
1657081200848,-113,-1265,398
1657081200888,13,-1099,336
1657081200928,110,-849,290
1657081200968,149,-646,250
1657081201008,108,-567,200
1657081201048,85,-700,183
1657081201088,124,-859,155
1657081201128,138,-1029,193
1657081201168,67,-1269,221
1657081201208,-66,-1355,197
1657081201248,-218,-1217,151
1657081201288,-335,-1183,68
1657081201328,-293,-1268,12
1657081201368,-133,-1310,137
1657081201408,-41,-1226,272
1657081201448,-116,-1107,232
1657081201488,-241,-1047,219
1657081201528,-262,-1041,85
1657081201568,-270,-1026,11
1657081201608,-292,-988,-41
1657081201648,-286,-1019,-70
1657081201688,-263,-1122,-42
1657081201728,-262,-1106,67
1657081201768,-318,-1092,147
1657081201808,-331,-1124,183
1657081201848,-277,-1202,173
1657081201888,-295,-1224,115
1657081201928,-365,-1277,60
1657081201968,-349,-1412,170
1657081202008,-272,-1595,336
1657081202048,-204,-1622,453
1657081202088,-154,-1525,503
1657081202128,-84,-1387,456
1657081202168,4,-1156,389
1657081202208,109,-911,344
1657081202248,191,-685,278
1657081202288,232,-572,173
1657081202328,273,-531,97
1657081202368,270,-658,110
1657081202408,194,-893,151
1657081202448,149,-1252,226
1657081202488,88,-1509,341
1657081202528,-121,-1527,391
1657081202568,-367,-1562,292
1657081202608,-524,-1626,138
1657081202648,-508,-1634,46
1657081202688,-379,-1462,-26
1657081202728,-263,-1253,-4
1657081202768,-176,-1064,68
1657081202808,-134,-942,91
1657081202848,-114,-945,56
1657081202888,-155,-1001,-10
1657081202928,-209,-933,-72
1657081202968,-177,-982,-3
1657081203008,-105,-977,119
1657081203048,-88,-886,144
1657081203088,-84,-937,165
1657081203128,-146,-1131,257
1657081203168,-420,-1232,209
1657081203208,-701,-1284,100
1657081203248,-705,-1477,291
1657081203288,-358,-1668,467
1657081203328,817,-1282,468
1657081203368,39,-1431,874
1657081203408,45,-1235,558
1657081203448,25,-1062,257
1657081203488,13,-884,217
1657081203528,129,-695,91
1657081203568,214,-589,2
1657081203608,264,-641,56
1657081203648,202,-812,156
1657081203688,123,-1157,191
1657081203728,47,-1502,182
1657081203768,-117,-1575,213
1657081203808,-352,-1303,235
1657081203848,-526,-1159,123
1657081203888,-238,-887,154
1657081203928,-205,-1346,365
1657081203968,-111,-1177,278
1657081204008,-147,-1003,164
1657081204048,-256,-977,132
1657081204088,-260,-961,79
1657081204128,-232,-953,56
1657081204168,-229,-927,62
1657081204208,-190,-968,45
1657081204248,-128,-1111,39
1657081204288,-126,-1126,39
1657081204328,-205,-1142,57
1657081204368,-274,-1121,79
1657081204408,-305,-1092,59
1657081204448,-365,-1094,16
1657081204488,-389,-1170,52
1657081204528,34,-1229,275
1657081204568,27,-1085,440
1657081204608,-25,-1209,502
1657081204648,-236,-1170,359
1657081204688,-136,-1131,306
1657081204728,-101,-1079,327
1657081204768,15,-964,306
1657081204808,74,-795,296
1657081204848,95,-702,276
1657081204888,124,-781,201
1657081204928,161,-880,156
1657081204968,127,-1026,169
1657081205008,72,-1176,243
1657081205048,-64,-1208,293
1657081205088,-273,-1157,270
1657081205128,-468,-1270,182
1657081205168,-564,-1153,101
1657081205208,-263,-1389,264
1657081205248,-102,-1202,57
1657081205288,-65,-940,79
1657081205328,-125,-866,164
1657081205368,-178,-892,11
1657081205408,-159,-913,-39
1657081205448,-176,-874,-71
1657081205488,-149,-974,-68
1657081205528,-67,-1143,44
1657081205568,-129,-1162,181
1657081205608,-269,-1200,165
1657081205648,-375,-1201,85
1657081205688,-421,-1182,8
1657081205728,-513,-1161,-66
1657081205768,-457,-1307,9
1657081205808,598,-1548,271
1657081205848,-244,-1521,127
1657081205888,-270,-1306,503
1657081205928,-210,-1138,418
1657081205968,-73,-1019,423
1657081206008,10,-872,348
1657081206048,97,-728,319
1657081206088,122,-630,300
1657081206128,135,-682,241
1657081206168,152,-865,152
1657081206208,139,-1035,116
1657081206248,71,-1273,161
1657081206288,-26,-1389,217
1657081206328,-179,-1299,246
1657081206368,-323,-1163,213
1657081206408,-950,-1421,-276
1657081206448,-256,-1253,262
1657081206488,-136,-1276,243
1657081206528,-221,-1106,24
1657081206568,-266,-1028,48
1657081206608,-208,-987,-17
1657081206648,-177,-979,-29
1657081206688,-225,-941,-40
1657081206728,-283,-918,8
1657081206768,-245,-1036,66
1657081206808,-205,-1134,119
1657081206848,-259,-1122,179
1657081206888,-272,-1207,221
1657081206928,-258,-1214,211
1657081206968,-312,-1120,75
1657081207008,-370,-1127,6
1657081207048,-259,-1270,131
1657081207088,-142,-1344,319
1657081207128,-67,-1314,385
1657081207168,-44,-1323,301
1657081207208,-70,-1150,186
1657081207248,-100,-982,177
1657081207288,-50,-893,219
1657081207328,44,-774,262
1657081207368,99,-654,238
1657081207408,140,-666,183
1657081207448,154,-884,202
1657081207488,110,-1072,229
1657081207528,34,-1267,223
1657081207568,-78,-1368,253
1657081207608,-233,-1258,266
1657081207648,-350,-1127,223
1657081207688,-267,-1301,82
1657081207728,-274,-1345,109
1657081207768,-191,-1297,79
1657081207808,-239,-1175,85
1657081207848,-255,-1023,69
1657081207888,-229,-948,41
1657081207928,-203,-915,36
1657081207968,-207,-883,24
1657081208008,-220,-868,-15
1657081208048,-176,-1013,-3
1657081208088,-148,-1096,82
1657081208128,-223,-1139,138
1657081208168,-272,-1254,153
1657081208208,-313,-1270,120
1657081208248,-412,-1162,-5
1657081208288,-473,-1174,-2
1657081208328,-347,-1396,185
1657081208368,-188,-1504,373
1657081208408,-61,-1427,511
1657081208448,-38,-1258,522
1657081208488,-24,-1057,373
1657081208528,0,-933,266
1657081208568,69,-820,266
1657081208608,126,-694,246
1657081208648,131,-621,149
1657081208688,103,-735,67
1657081208728,118,-921,68
1657081208768,129,-1121,156
1657081208808,75,-1375,269
1657081208848,-57,-1520,305
1657081208888,-258,-1327,273
1657081208928,-456,-1241,180
1657081208968,-516,-1267,55
1657081209008,-346,-1345,60
1657081209048,-186,-1257,91
1657081209088,-127,-1049,122
1657081209128,-132,-903,149
1657081209168,-129,-851,122
1657081209208,-137,-837,56
1657081209248,-197,-856,20
1657081209288,-244,-919,0
1657081209328,-215,-1100,53
1657081209368,-227,-1172,117
1657081209408,-290,-1247,105
1657081209448,-332,-1271,91
1657081209488,-338,-1216,28
1657081209528,-360,-1149,-6
1657081209568,-317,-1208,55
1657081209608,-220,-1341,248
1657081209648,-122,-1386,370
1657081209688,-112,-1339,419
1657081209728,-165,-1249,374
1657081209768,-177,-1134,314
1657081209808,-64,-992,311
1657081209848,59,-818,257
1657081209888,142,-630,172
1657081209928,136,-541,126
1657081209968,108,-699,100
1657081210008,124,-882,109
1657081210048,105,-1051,171
1657081210088,71,-1362,272
1657081210128,-83,-1426,378
1657081210168,-345,-1326,356
1657081210208,-529,-1331,162
1657081210248,-479,-1377,-34
1657081210288,-289,-1367,-60
1657081210328,-155,-1215,20
1657081210368,-118,-987,95
1657081210408,-111,-868,133
1657081210448,-90,-815,132
1657081210488,-76,-813,120
1657081210528,-162,-887,89
1657081210568,-212,-991,31
1657081210608,-195,-1140,32
1657081210648,-230,-1243,52
1657081210688,-268,-1272,30
1657081210728,-265,-1287,0
1657081210768,-411,-1365,-54
1657081210808,-621,-1319,-84
1657081210848,-585,-1400,186
1657081210888,-550,-1735,523
1657081210928,-518,-1729,555
1657081210968,-332,-1464,207
1657081211008,-78,-960,-67
1657081211048,220,-504,-81
1657081211088,171,-381,-174
1657081211128,263,-309,-415
1657081211168,175,-131,-363
1657081211208,-124,-141,-653
1657081211248,-333,-215,-844
1657081211288,-648,-414,-867
1657081211328,-943,-503,-1119
1657081211368,-659,-810,-882
1657081211408,-1178,-1030,-851
1657081211448,-240,-439,-687
1657081211488,-384,-569,-718
1657081211528,-395,-680,-725
1657081211568,-368,-772,-288
1657081211608,-244,-826,-675
1657081211648,-203,-666,-734
1657081211688,-135,-722,-630
1657081211728,-333,-831,-523
1657081211768,-191,-763,-656
1657081211808,-245,-711,-714
1657081211848,-290,-758,-645
1657081211888,-276,-764,-639
1657081211928,-249,-671,-619
1657081211968,-315,-768,-611
1657081212008,-231,-743,-791
1657081212048,-270,-676,-710
1657081212088,-326,-694,-666
1657081212128,-250,-787,-565
1657081212168,-154,-941,-489
1657081212208,-379,-834,-549
1657081212248,-243,-787,-567
1657081212288,-103,-707,-623
1657081212328,-722,-218,-747
1657081212368,-192,-110,-1218
1657081212408,-1886,-179,-1287
1657081212448,-522,-341,-1809
1657081212488,-227,-367,-698
1657081212528,-92,-240,-584
1657081212568,198,-329,-141
1657081212608,135,-890,-267
1657081212648,-106,-1325,-365
1657081212688,-227,-1207,-464
1657081212728,45,-1136,-105
1657081212768,109,-1315,169
1657081212808,-110,-1152,321
1657081212848,-373,-1132,465
1657081212888,-407,-1293,515
1657081212928,-237,-1323,402
1657081212968,-154,-1229,224
1657081213008,-233,-1157,155
1657081213048,-299,-1113,86
1657081213088,-282,-1083,8
1657081213128,-274,-1071,-70
1657081213168,-311,-1038,-107
1657081213208,-370,-1025,-67
1657081213248,-326,-1089,34
1657081213288,-200,-1173,137
1657081213328,-134,-1159,224
1657081213368,-159,-1128,248
1657081213408,-250,-1099,158
1657081213448,-356,-1052,12
1657081213488,-421,-1178,9
1657081213528,-344,-1423,259
1657081213568,-310,-1491,434
1657081213608,-280,-1482,534
1657081213648,-218,-1395,520
1657081213688,-87,-1260,399
1657081213728,-2,-1065,310
1657081213768,51,-862,241
1657081213808,99,-677,177
1657081213848,161,-599,115
1657081213888,241,-648,129
1657081213928,266,-838,175
1657081213968,178,-1116,245
1657081214008,26,-1454,257
1657081214048,-150,-1401,259
1657081214088,-349,-1253,266
1657081214128,-448,-1342,196
1657081214168,-300,-1209,131
1657081214208,-226,-1377,255
1657081214248,-178,-1240,175
1657081214288,-197,-1071,117
1657081214328,-260,-988,64
1657081214368,-272,-981,0
1657081214408,-279,-991,-55
1657081214448,-296,-1012,-84
1657081214488,-292,-1135,-105
1657081214528,-282,-1271,-45
1657081214568,-311,-1331,60
1657081214608,-324,-1410,165
1657081214648,-334,-1331,188
1657081214688,-370,-1115,109
1657081214728,-354,-1157,145
1657081214768,-203,-1424,347
1657081214808,-75,-1527,490
1657081214848,-26,-1347,572
1657081214888,-109,-1191,446
1657081214928,-154,-1074,270
1657081214968,-103,-928,228
1657081215008,24,-814,273
1657081215048,99,-687,301
1657081215088,140,-616,236
1657081215128,133,-711,156
1657081215168,98,-888,119
1657081215208,97,-1052,122
1657081215248,58,-1293,169
1657081215288,-54,-1537,234
1657081215328,-224,-1416,243
1657081215368,-415,-1284,179
1657081215408,-880,-1686,-342
1657081215448,-339,-1296,216
1657081215488,-132,-1264,193
1657081215528,-124,-1025,35
1657081215568,-196,-938,119
1657081215608,-230,-904,54
1657081215648,-214,-913,5
1657081215688,-235,-927,-19
1657081215728,-282,-948,-63
1657081215768,-271,-1091,-42
1657081215808,-254,-1215,64
1657081215848,-277,-1303,149
1657081215888,-316,-1431,193
1657081215928,-431,-1309,-25
1657081215968,-485,-1117,-116
1657081216008,-389,-1296,147
1657081216048,-196,-1489,410
1657081216088,-47,-1460,470
1657081216128,-54,-1285,445
1657081216168,-140,-1154,308
1657081216208,-146,-1026,224
1657081216248,-69,-899,212
1657081216288,45,-782,231
1657081216328,119,-667,229
1657081216368,149,-667,188
1657081216408,131,-813,163
1657081216448,136,-946,160
1657081216488,127,-1250,227
1657081216528,22,-1435,297
1657081216568,-177,-1307,263
1657081216608,-346,-1240,122
1657081216648,-434,-1329,-40
1657081216688,-319,-1430,-31
1657081216728,-179,-1353,73
1657081216768,-163,-1124,97
1657081216808,-220,-999,73
1657081216848,-216,-955,17
1657081216888,-159,-949,-39
1657081216928,-152,-958,-54
1657081216968,-213,-934,-89
1657081217008,-247,-1044,-66
1657081217048,-212,-1161,7
1657081217088,-224,-1171,78
1657081217128,-241,-1326,129
1657081217168,-277,-1301,128
1657081217208,-387,-1072,-10
1657081217248,-454,-1077,-10
1657081217288,-308,-1326,151
1657081217328,-173,-1553,293
1657081217368,-145,-1504,373
1657081217408,-176,-1378,369
1657081217448,-121,-1226,300
1657081217488,-20,-1091,256
1657081217528,93,-937,315
1657081217568,176,-717,336
1657081217608,229,-566,269
1657081217648,261,-632,188
1657081217688,205,-842,212
1657081217728,121,-1081,242
1657081217768,49,-1406,253
1657081217808,-67,-1496,244
1657081217848,-256,-1375,208
1657081217888,-424,-1419,77
1657081217928,-536,-1469,-58
1657081217968,-300,-1465,213
1657081218008,-231,-1261,46
1657081218048,-225,-1066,95
1657081218088,-210,-953,69
1657081218128,-153,-900,-2
1657081218168,-94,-845,-48
1657081218208,-118,-790,-75
1657081218248,-202,-932,-22
1657081218288,-224,-1136,96
1657081218328,-271,-1190,146
1657081218368,-316,-1342,134
1657081218408,-407,-1363,119
1657081218448,-477,-1153,18
1657081218488,-471,-1122,20
1657081218528,-306,-1397,190
1657081218568,-101,-1585,343
1657081218608,3,-1446,402
1657081218648,-107,-1252,411
1657081218688,-239,-1108,345
1657081218728,-156,-1015,298
1657081218768,-19,-937,297
1657081218808,88,-836,294
1657081218848,129,-675,234
1657081218888,135,-662,118
1657081218928,191,-775,76
1657081218968,207,-895,152
1657081219008,143,-1127,244
1657081219048,48,-1386,329
1657081219088,-123,-1397,373
1657081219128,-359,-1433,327
1657081219168,-500,-1558,181
1657081219208,-439,-1583,40
1657081219248,-326,-1459,-54
1657081219288,-250,-1251,-109
1657081219328,-194,-1068,-76
1657081219368,-126,-969,-17
1657081219408,-91,-895,-24
1657081219448,-81,-788,-21
1657081219488,-128,-791,-4
1657081219528,-135,-960,3
1657081219568,-157,-1093,51
1657081219608,-237,-1212,63
1657081219648,-273,-1394,79
1657081219688,-382,-1443,51
1657081219728,-520,-1261,-69
1657081219768,-532,-1303,9
1657081219808,-299,-1572,271
1657081219848,-56,-1704,409
1657081219888,54,-1511,471
1657081219928,-19,-1251,433
1657081219968,-77,-1116,347
1657081220008,-12,-936,311
1657081220048,57,-769,296
1657081220088,107,-644,266
1657081220128,161,-581,204
1657081220168,206,-612,146
1657081220208,173,-787,176
1657081220248,115,-1030,248
1657081220288,52,-1381,297
1657081220328,-17,-1780,287
1657081220368,-242,-1613,225
1657081220408,-469,-1335,78
1657081220448,-758,-756,308
1657081220488,-386,-1515,265
1657081220528,-79,-1461,152
1657081220568,-55,-1124,142
1657081220608,-191,-953,198
1657081220648,-294,-866,78
1657081220688,-295,-878,20
1657081220728,-269,-980,-21
1657081220768,-263,-1074,-82
1657081220808,-254,-1162,-124
1657081220848,-204,-1232,-58
1657081220888,-151,-1256,85
1657081220928,-100,-1239,196
1657081220968,-115,-1116,222
1657081221008,-249,-1038,118
1657081221048,-385,-1128,62
1657081221088,-362,-1297,296
1657081221128,-330,-1425,551
1657081221168,-237,-1405,515
1657081221208,-274,-1267,364
1657081221248,-261,-1158,308
1657081221288,-131,-1097,317
1657081221328,43,-959,298
1657081221368,146,-746,302
1657081221408,191,-641,276
1657081221448,200,-709,173
1657081221488,153,-820,99
1657081221528,84,-971,100
1657081221568,75,-1249,198
1657081221608,6,-1352,335
1657081221648,-184,-1206,338
1657081221688,-355,-1237,271
1657081221728,-403,-1371,233
1657081221768,-254,-1379,257
1657081221808,-228,-1368,226
1657081221848,-317,-1263,107
1657081221888,-347,-1135,56
1657081221928,-294,-1015,5
1657081221968,-245,-969,-78
1657081222008,-198,-978,-170
1657081222048,-175,-1051,-195
1657081222088,-215,-1244,-150
1657081222128,-274,-1359,-58
1657081222168,-347,-1357,73
1657081222208,-334,-1413,218
1657081222248,-307,-1326,360
1657081222288,-252,-1207,455
1657081222328,-97,-1241,562
1657081222368,28,-1221,607
1657081222408,25,-1181,471
1657081222448,-130,-1110,319
1657081222488,-209,-1091,295
1657081222528,-131,-1048,250
1657081222568,-14,-938,229
1657081222608,67,-809,258
1657081222648,99,-729,241
1657081222688,133,-729,173
1657081222728,158,-753,139
1657081222768,156,-893,202
1657081222808,118,-1105,284
1657081222848,75,-1352,308
1657081222888,-44,-1474,336
1657081222928,-264,-1411,262
1657081222968,-426,-1694,-8
1657081223008,-540,-1503,95
1657081223048,-372,-1504,-32
1657081223088,-194,-1270,-37
1657081223128,-132,-1024,98
1657081223168,-136,-849,203
1657081223208,-143,-788,245
1657081223248,-172,-873,247
1657081223288,-229,-1009,125
1657081223328,-271,-1137,23
1657081223368,-317,-1259,-30
1657081223408,-44,-1507,-184
1657081223448,786,-1162,127
1657081223488,584,-631,326
1657081223528,-136,-961,37
1657081223568,-321,-979,126
1657081223608,-180,-1113,125
1657081223648,-41,-1226,244
1657081223688,-241,-1183,105
1657081223728,-563,-1257,-135
1657081223768,-740,-1427,66
1657081223808,-482,-1584,278
1657081223848,-182,-1486,430
1657081223888,-38,-1280,492
1657081223928,-63,-1205,442
1657081223968,1,-1075,354
1657081224008,62,-880,277
1657081224048,115,-734,208
1657081224088,126,-644,206
1657081224128,125,-618,193
1657081224168,122,-629,199
1657081224208,107,-751,264
1657081224248,81,-960,306
1657081224288,47,-1398,382
1657081224328,-75,-1777,588
1657081224368,-300,-1925,529
1657081224408,132,-2046,-882
1657081224448,-460,-1220,-110
1657081224488,-295,-1342,-16
1657081224528,-104,-1230,-178
1657081224568,164,-1046,14
1657081224608,186,-821,258
1657081224648,-108,-881,388
1657081224688,-212,-935,390
1657081224728,-193,-1028,226
1657081224768,-160,-1137,94
1657081224808,-124,-1114,17
1657081224848,-27,-1036,38
1657081224888,6,-971,153
1657081224928,-68,-940,203
1657081224968,-101,-880,141
1657081225008,-67,-802,81
1657081225048,-97,-820,66
1657081225088,-70,-1133,132
1657081225128,-117,-1481,226
1657081225168,-422,-1631,8
1657081225208,-777,-1467,-109
1657081225248,-914,-1766,346
1657081225288,-422,-2046,730
1657081225328,106,-2046,698
1657081225368,312,-1568,528
1657081225408,204,-1147,457
1657081225448,120,-920,277
1657081225488,184,-701,85
1657081225528,229,-504,58
1657081225568,165,-418,126
1657081225608,89,-476,122
1657081225648,118,-595,211
1657081225688,162,-787,322
1657081225728,144,-1181,436
1657081225768,28,-1625,517
1657081225808,-152,-2025,587
1657081225848,-303,-2046,474
1657081225888,-320,-2046,226
1657081225928,-504,-1523,66
1657081225968,-355,-1246,10
1657081226008,-171,-1226,-57
1657081226048,-6,-1132,-2
1657081226088,12,-984,176
1657081226128,-178,-944,158
1657081226168,-257,-930,177
1657081226208,-161,-884,152
1657081226248,-92,-939,86
1657081226288,-51,-1031,9
1657081226328,-99,-1038,-16
1657081226368,-164,-1007,78
1657081226408,-171,-1024,168
1657081226448,-93,-1026,191
1657081226488,-84,-1073,216
1657081226528,-164,-1449,264
1657081226568,-361,-1699,452
1657081226608,-576,-1558,607
1657081226648,-544,-1696,434
1657081226688,187,-1935,625
1657081226728,1822,-1485,-122
1657081226768,1244,-765,-369
1657081226808,-283,-1158,557
1657081226848,33,-776,-38
1657081226888,-429,-783,68
1657081226928,-759,-769,29
1657081226968,-791,-794,0
1657081227008,-791,-835,51
1657081227048,-702,-868,121
1657081227088,-678,-929,131
1657081227128,-712,-942,0
1657081227168,-683,-951,41
1657081227208,-568,-798,62
1657081227248,-484,-766,124
1657081227288,-615,-900,114
1657081227328,-555,-919,70
1657081227368,-495,-821,67
1657081227408,-447,-737,15
1657081227448,-658,-746,30
1657081227488,-682,-714,65
1657081227528,-661,-705,89
1657081227568,-681,-691,137
1657081227608,-695,-714,67
1657081227648,-655,-797,40
1657081227688,-739,-835,88
1657081227728,-727,-778,93
1657081227768,-770,-745,105
1657081227808,-732,-645,90
1657081227848,-732,-802,133
1657081227888,-841,-933,334
1657081227928,-684,-740,253
1657081227968,-492,-692,187
1657081228008,-552,-858,220
1657081228048,-662,-960,221
1657081228088,-605,-867,206
1657081228128,-514,-655,108
1657081228168,-510,-588,127
1657081228208,-519,-567,97
1657081228248,-672,-632,137
1657081228288,-734,-700,282
1657081228328,-800,-771,338
1657081228368,-805,-798,224
1657081228408,-805,-785,186
1657081228448,-806,-787,156
1657081228488,-861,-770,91
1657081228528,-782,-793,125
1657081228568,-688,-756,235
1657081228608,-668,-651,212
1657081228648,-702,-647,203
1657081228688,-630,-752,163
1657081228728,-617,-810,172
1657081228768,-649,-775,192
1657081228808,-717,-684,135
1657081228848,-647,-610,163
1657081228888,-720,-623,184
1657081228928,-814,-629,145
1657081228968,-825,-626,128
1657081229008,-806,-653,173
1657081229048,-830,-711,179
1657081229088,-810,-719,162
1657081229128,-807,-683,163
1657081229168,-768,-638,95
1657081229208,-765,-746,205
1657081229248,-821,-758,321
1657081229288,-725,-699,185
1657081229328,-547,-676,238
1657081229368,-638,-775,285
1657081229408,-524,-752,145
1657081229448,-653,-737,183
1657081229488,-520,-668,201
1657081229528,-481,-657,158
1657081229568,-477,-656,137
1657081229608,-389,-690,189
1657081229648,-270,-719,292
1657081229688,-234,-836,331
1657081229728,-210,-1077,306
1657081229768,-179,-1288,228
1657081229808,-134,-1457,158
1657081229848,-147,-1500,179
1657081229888,-578,-1467,-716
1657081229928,-518,-936,458
1657081229968,-145,-1049,584
1657081230008,-52,-1193,233
1657081230048,42,-1177,151
1657081230088,-36,-1113,141
1657081230128,-135,-1002,167
1657081230168,-127,-962,121
1657081230208,-118,-952,39
1657081230248,-127,-960,-40
1657081230288,-145,-980,-85
1657081230328,-166,-1049,-86
1657081230368,-214,-1101,-50
1657081230408,-263,-1110,23
1657081230448,-281,-1137,66
1657081230488,-238,-1283,102
1657081230528,-221,-1364,94
1657081230568,-301,-1273,36
1657081230608,-320,-1371,166
1657081230648,-248,-1563,418
1657081230688,-157,-1718,611
1657081230728,-32,-1711,546
1657081230768,-31,-1409,397
1657081230808,-80,-1212,380
1657081230848,15,-1101,368
1657081230888,190,-907,306
1657081230928,280,-663,206
1657081230968,321,-535,124
1657081231008,354,-597,94
1657081231048,226,-815,155
1657081231088,92,-1149,252
1657081231128,41,-1429,291
1657081231168,-84,-1529,350
1657081231208,-318,-1561,355
1657081231248,-486,-1898,152
1657081231288,-635,-1693,3
1657081231328,-336,-1448,89
1657081231368,-205,-1262,-121
1657081231408,-125,-1054,-46
1657081231448,-84,-948,108
1657081231488,-107,-891,131
1657081231528,-141,-871,114
1657081231568,-185,-886,46
1657081231608,-200,-993,4
1657081231648,-203,-1112,14
1657081231688,-231,-1157,18
1657081231728,-276,-1205,45
1657081231768,-266,-1213,115
1657081231808,-326,-1083,130
1657081231848,-444,-1017,75
1657081231888,-423,-1213,232
1657081231928,-271,-1390,419
1657081231968,-113,-1475,503
1657081232008,-137,-1480,430
1657081232048,-283,-1386,282
1657081232088,-243,-1297,274
1657081232128,-36,-1144,307
1657081232168,132,-912,296
1657081232208,233,-669,219
1657081232248,289,-490,125
1657081232288,297,-528,104
1657081232328,257,-788,180
1657081232368,116,-1154,280
1657081232408,35,-1543,301
1657081232448,-143,-1544,289
1657081232488,-370,-1394,230
1657081232528,-544,-1360,52
1657081232568,-518,-1424,-11
1657081232608,-265,-1468,80
1657081232648,-105,-1267,134
1657081232688,-29,-1001,118
1657081232728,-45,-869,72
1657081232768,-62,-858,53
1657081232808,-70,-881,80
1657081232848,-164,-911,64
1657081232888,-242,-1052,37
1657081232928,-265,-1274,-33
1657081232968,-284,-1284,-104
1657081233008,-313,-1277,-78
1657081233048,-283,-1299,39
1657081233088,-280,-1192,90
1657081233128,-337,-1125,64
1657081233168,-319,-1295,136
1657081233208,-296,-1461,345
1657081233248,-221,-1611,308
1657081233288,-125,-1406,444
1657081233328,-148,-1322,581
1657081233368,-117,-1148,555
1657081233408,17,-972,401
1657081233448,106,-780,293
1657081233488,160,-617,176
1657081233528,201,-576,88
1657081233568,226,-686,36
1657081233608,133,-820,98
1657081233648,55,-1106,193
1657081233688,-10,-1327,263
1657081233728,-118,-1283,330
1657081233768,-265,-1240,319
1657081233808,-348,-1416,235
1657081233848,-381,-1593,204
1657081233888,-377,-1518,145
1657081233928,-344,-1276,61
1657081233968,-277,-1093,33
1657081234008,-222,-989,51
1657081234048,-170,-948,90
1657081234088,-147,-947,103
1657081234128,-187,-914,95
1657081234168,-208,-974,32
1657081234208,-200,-1155,172
1657081234248,-228,-1197,238
1657081234288,-279,-1292,239
1657081234328,-321,-1243,164
1657081234368,-372,-1028,15
1657081234408,-403,-1073,-25
1657081234448,-281,-1391,189
1657081234488,-164,-1576,403
1657081234528,-155,-1672,526
1657081234568,-238,-1630,522
1657081234608,-201,-1525,520
1657081234648,-19,-1284,499
1657081234688,143,-1003,410
1657081234728,245,-766,211
1657081234768,360,-501,49
1657081234808,303,-408,14
1657081234848,237,-546,72
1657081234888,250,-779,111
1657081234928,259,-1232,187
1657081234968,175,-1824,311
1657081235008,-113,-1986,402
1657081235048,-518,-1859,314
1657081235088,-743,-1675,-9
1657081235128,-576,-1623,-255
1657081235168,-286,-1547,-310
1657081235208,-87,-1329,-89
1657081235248,50,-1031,152
1657081235288,26,-778,270
1657081235328,-61,-754,250
1657081235368,-111,-867,210
1657081235408,-193,-901,161
1657081235448,-232,-951,76
1657081235488,-144,-1007,-41
1657081235528,-3,-1067,-120
1657081235568,7,-1049,-94
1657081235608,-48,-1116,-48
1657081235648,-100,-1186,18
1657081235688,-244,-1119,17
1657081235728,-417,-1122,-47
1657081235768,-605,-1329,109
1657081235808,-638,-1641,339
1657081235848,-505,-1711,392
1657081235888,-261,-1622,430
1657081235928,-44,-1474,452
1657081235968,147,-1244,370
1657081236008,243,-914,269
1657081236048,232,-647,200
1657081236088,128,-585,150
1657081236128,108,-637,122
1657081236168,184,-727,104
1657081236208,208,-903,138
1657081236248,185,-1289,212
1657081236288,30,-1506,297
1657081236328,-240,-1427,312
1657081236368,-471,-1441,175
1657081236408,-514,-1504,-2
1657081236448,-324,-1496,-24
1657081236488,-201,-1329,38
1657081236528,-187,-1090,36
1657081236568,-184,-989,66
1657081236608,-140,-934,59
1657081236648,-105,-882,24
